success,rt,trial_type,trial_index,plugin_version,time_elapsed,random_id,participant,timeout,failed_images,failed_audio,failed_video,stimulus,response,condition,category,level,selection_array,selection_index,rt_array,selection_type_array,final_choice_array,final_rt,file_name
TRUE,2504,fullscreen,0,null,3522,p0dl5tzjk4h,Beaver,NA,NA,NA,NA,NA,NA,NA,NA,NA,NA,NA,NA,NA,NA,NA,/Users/martincz/GitHub/COGS119/group_fa24_suspicious_coincidence/analysis/../data/raw_data/p0dl5tzjk4h_1732223898556.csv
TRUE,NA,preload,1,2.0.0,4027,p0dl5tzjk4h,Beaver,FALSE,[],[],[],NA,NA,NA,NA,NA,NA,NA,NA,NA,NA,NA,/Users/martincz/GitHub/COGS119/group_fa24_suspicious_coincidence/analysis/../data/raw_data/p0dl5tzjk4h_1732223898556.csv
NA,983,html-keyboard-response,2,2.0.0,5012,p0dl5tzjk4h,Beaver,NA,NA,NA,NA,Welcome to the experiment. Press any key to begin.,NA,NA,NA,NA,NA,NA,NA,NA,NA,NA,/Users/martincz/GitHub/COGS119/group_fa24_suspicious_coincidence/analysis/../data/raw_data/p0dl5tzjk4h_1732223898556.csv
NA,7355,survey-text,3,2.0.0,12376,p0dl5tzjk4h,Beaver,NA,NA,NA,NA,NA,"{""participant_id"":""Beaver""}",NA,NA,NA,NA,NA,NA,NA,NA,NA,/Users/martincz/GitHub/COGS119/group_fa24_suspicious_coincidence/analysis/../data/raw_data/p0dl5tzjk4h_1732223898556.csv
NA,5561,html-keyboard-response,4,2.0.0,17941,p0dl5tzjk4h,Beaver,NA,NA,NA,NA,"
  <p><b>This is Mr. Frog!</b></p>
  <img src=""stimuli/mrfrog.png"" alt=""Mr. Frog"" style=""width:300px;height:300px;"">
  <p>He speaks a different language and needs help finding the items he wants. Can you help Mr. Frog?</p>
  <p>Press any key to move to the next page.</p>
",NA,NA,NA,NA,NA,NA,NA,NA,NA,NA,/Users/martincz/GitHub/COGS119/group_fa24_suspicious_coincidence/analysis/../data/raw_data/p0dl5tzjk4h_1732223898556.csv
NA,10379,html-keyboard-response,5,2.0.0,28321,p0dl5tzjk4h,Beaver,NA,NA,NA,NA,"
  <img src=""stimuli/mrfrog.png"" alt=""Mr. Frog"" style=""width:300px;height:300px;"">
  <p>In each trial, you will be shown an image that will be labeled with a word in the language that Mr. Frog speaks. </p>
  <p>Your job will be to select all the items that you think matches what Mr. Frog is asking for. </p>
  <p>Press any key to begin.</p>
",NA,NA,NA,NA,NA,NA,NA,NA,NA,NA,/Users/martincz/GitHub/COGS119/group_fa24_suspicious_coincidence/analysis/../data/raw_data/p0dl5tzjk4h_1732223898556.csv
NA,NA,html-button-response,6,2.0.0,53437,p0dl5tzjk4h,Beaver,NA,NA,NA,NA,"<img src=""stimuli/c3_sub1.jpg"" style=""width:200px;height:200px;""> 
              <p>Here is a tev. Can you give Mr. Frog all the other tevs?</p>
              <p>Click on all of the tevs below. If you change your mind, you can unselect any image.</p>
              <p>Click the Submit button when you are done selecting all the tevs.</p>",NA,1-item,animals,one-subordinate,"[""stimuli/c3_sub4.jpg"",""stimuli/c3_bas4.jpg"",""stimuli/c3_bas3.jpg"",""stimuli/c3_sub5.jpg""]","[3,1,10,17]","[16199,17247,19259,20625]","[""select"",""select"",""select"",""select""]","[""stimuli/c3_sub4.jpg"",""stimuli/c3_bas4.jpg"",""stimuli/c3_bas3.jpg"",""stimuli/c3_sub5.jpg""]",25107,/Users/martincz/GitHub/COGS119/group_fa24_suspicious_coincidence/analysis/../data/raw_data/p0dl5tzjk4h_1732223898556.csv
NA,NA,html-button-response,7,2.0.0,65117,p0dl5tzjk4h,Beaver,NA,NA,NA,NA,"<img src=""stimuli/c1_sub1.jpg"" style=""width:200px;height:200px;""> 
              <p>Here is a mep. Can you give Mr. Frog all the other meps?</p>
              <p>Click on all of the meps below. If you change your mind, you can unselect any image.</p>
              <p>Click the Submit button when you are done selecting all the meps.</p>",NA,1-item,vegetables,one-subordinate,"[""stimuli/c1_sub5.jpg"",""stimuli/c1_sub4.jpg"",""stimuli/c1_bas4.jpg"",""stimuli/c1_bas3.jpg""]","[1,13,20,19]","[2952,5054,6546,7417]","[""select"",""select"",""select"",""select""]","[""stimuli/c1_sub5.jpg"",""stimuli/c1_sub4.jpg"",""stimuli/c1_bas4.jpg"",""stimuli/c1_bas3.jpg""]",11673,/Users/martincz/GitHub/COGS119/group_fa24_suspicious_coincidence/analysis/../data/raw_data/p0dl5tzjk4h_1732223898556.csv
NA,NA,html-button-response,8,2.0.0,76578,p0dl5tzjk4h,Beaver,NA,NA,NA,NA,"<img src=""stimuli/c2_sub1.jpg"" style=""width:200px;height:200px;""> 
              <p>Here is a zom. Can you give Mr. Frog all the other zoms?</p>
              <p>Click on all of the zoms below. If you change your mind, you can unselect any image.</p>
              <p>Click the Submit button when you are done selecting all the zoms.</p>",NA,1-item,vehicles,one-subordinate,"[""stimuli/c2_sub4.jpg"",""stimuli/c2_bas3.jpg"",""stimuli/c2_bas4.jpg"",""stimuli/c2_sub5.jpg""]","[4,13,6,19]","[3784,6418,7216,9505]","[""select"",""select"",""select"",""select""]","[""stimuli/c2_sub4.jpg"",""stimuli/c2_bas3.jpg"",""stimuli/c2_bas4.jpg"",""stimuli/c2_sub5.jpg""]",11455,/Users/martincz/GitHub/COGS119/group_fa24_suspicious_coincidence/analysis/../data/raw_data/p0dl5tzjk4h_1732223898556.csv
NA,NA,html-button-response,9,2.0.0,92753,p0dl5tzjk4h,Beaver,NA,NA,NA,NA,"<img src=""stimuli/c1_sub1.jpg"" style=""width:200px;height:200px; margin: 5px;""><img src=""stimuli/c1_sup1.jpg"" style=""width:200px;height:200px; margin: 5px;""><img src=""stimuli/c1_sup2.jpg"" style=""width:200px;height:200px; margin: 5px;""><p>Here are some rifs. Can you give Mr. Frog all the other rifs?</p>
                                 <p>Click on all of the rifs below. If you change your mind, you can unselect any image.</p>
                                 <p>Click the Submit button when you are done selecting all the rifs.</p>",NA,3-item,vegetables,superordinate,"[""stimuli/c1_sup3.jpg"",""stimuli/c1_bas3.jpg"",""stimuli/c1_bas4.jpg"",""stimuli/c1_sub5.jpg"",""stimuli/c1_sub4.jpg"",""stimuli/c1_sup5.jpg"",""stimuli/c1_sup6.jpg"",""stimuli/c1_sup4.jpg""]","[1,0,4,11,9,15,22,18]","[7635,8391,9499,10170,11064,12397,13662,14780]","[""select"",""select"",""select"",""select"",""select"",""select"",""select"",""select""]","[""stimuli/c1_sup3.jpg"",""stimuli/c1_bas3.jpg"",""stimuli/c1_bas4.jpg"",""stimuli/c1_sub5.jpg"",""stimuli/c1_sub4.jpg"",""stimuli/c1_sup5.jpg"",""stimuli/c1_sup6.jpg"",""stimuli/c1_sup4.jpg""]",16168,/Users/martincz/GitHub/COGS119/group_fa24_suspicious_coincidence/analysis/../data/raw_data/p0dl5tzjk4h_1732223898556.csv
NA,NA,html-button-response,10,2.0.0,106678,p0dl5tzjk4h,Beaver,NA,NA,NA,NA,"<img src=""stimuli/c2_sub1.jpg"" style=""width:200px;height:200px; margin: 5px;""><img src=""stimuli/c2_sub2.jpg"" style=""width:200px;height:200px; margin: 5px;""><img src=""stimuli/c2_sub3.jpg"" style=""width:200px;height:200px; margin: 5px;""><p>Here are some zoms. Can you give Mr. Frog all the other zoms?</p>
                                 <p>Click on all of the zoms below. If you change your mind, you can unselect any image.</p>
                                 <p>Click the Submit button when you are done selecting all the zoms.</p>",NA,3-item,vehicles,subordinate,"[""stimuli/c2_sub4.jpg"",""stimuli/c2_sub5.jpg""]","[5,9]","[6939,8868]","[""select"",""select""]","[""stimuli/c2_sub4.jpg"",""stimuli/c2_sub5.jpg""]",13918,/Users/martincz/GitHub/COGS119/group_fa24_suspicious_coincidence/analysis/../data/raw_data/p0dl5tzjk4h_1732223898556.csv
NA,NA,html-button-response,11,2.0.0,117852,p0dl5tzjk4h,Beaver,NA,NA,NA,NA,"<img src=""stimuli/c2_bas1.jpg"" style=""width:200px;height:200px; margin: 5px;""><img src=""stimuli/c2_sub1.jpg"" style=""width:200px;height:200px; margin: 5px;""><img src=""stimuli/c2_bas2.jpg"" style=""width:200px;height:200px; margin: 5px;""><p>Here are some sibs. Can you give Mr. Frog all the other sibs?</p>
                                 <p>Click on all of the sibs below. If you change your mind, you can unselect any image.</p>
                                 <p>Click the Submit button when you are done selecting all the sibs.</p>",NA,3-item,vehicles,basic,"[""stimuli/c2_sub4.jpg"",""stimuli/c2_bas4.jpg"",""stimuli/c2_bas3.jpg"",""stimuli/c2_sub5.jpg""]","[8,4,15,20]","[4523,5468,7271,8802]","[""select"",""select"",""select"",""select""]","[""stimuli/c2_sub4.jpg"",""stimuli/c2_bas4.jpg"",""stimuli/c2_bas3.jpg"",""stimuli/c2_sub5.jpg""]",11168,/Users/martincz/GitHub/COGS119/group_fa24_suspicious_coincidence/analysis/../data/raw_data/p0dl5tzjk4h_1732223898556.csv
NA,NA,html-button-response,12,2.0.0,134674,p0dl5tzjk4h,Beaver,NA,NA,NA,NA,"<img src=""stimuli/c3_sub1.jpg"" style=""width:200px;height:200px; margin: 5px;""><img src=""stimuli/c3_bas1.jpg"" style=""width:200px;height:200px; margin: 5px;""><img src=""stimuli/c3_bas2.jpg"" style=""width:200px;height:200px; margin: 5px;""><p>Here are some wugs. Can you give Mr. Frog all the other wugs?</p>
                                 <p>Click on all of the wugs below. If you change your mind, you can unselect any image.</p>
                                 <p>Click the Submit button when you are done selecting all the wugs.</p>",NA,3-item,animals,basic,"[""stimuli/c3_sub5.jpg"",""stimuli/c3_sub4.jpg"",""stimuli/c3_bas3.jpg"",""stimuli/c3_bas4.jpg""]","[3,5,14,13]","[6693,7882,10351,11020]","[""select"",""select"",""select"",""select""]","[""stimuli/c3_sub5.jpg"",""stimuli/c3_sub4.jpg"",""stimuli/c3_bas3.jpg"",""stimuli/c3_bas4.jpg""]",16815,/Users/martincz/GitHub/COGS119/group_fa24_suspicious_coincidence/analysis/../data/raw_data/p0dl5tzjk4h_1732223898556.csv
NA,NA,html-button-response,13,2.0.0,147298,p0dl5tzjk4h,Beaver,NA,NA,NA,NA,"<img src=""stimuli/c1_sub1.jpg"" style=""width:200px;height:200px; margin: 5px;""><img src=""stimuli/c1_bas2.jpg"" style=""width:200px;height:200px; margin: 5px;""><img src=""stimuli/c1_bas1.jpg"" style=""width:200px;height:200px; margin: 5px;""><p>Here are some tobs. Can you give Mr. Frog all the other tobs?</p>
                                 <p>Click on all of the tobs below. If you change your mind, you can unselect any image.</p>
                                 <p>Click the Submit button when you are done selecting all the tobs.</p>",NA,3-item,vegetables,basic,"[""stimuli/c1_sub5.jpg"",""stimuli/c1_sub4.jpg"",""stimuli/c1_bas3.jpg"",""stimuli/c1_bas4.jpg""]","[3,4,8,23]","[4353,5090,6720,9575]","[""select"",""select"",""select"",""select""]","[""stimuli/c1_sub5.jpg"",""stimuli/c1_sub4.jpg"",""stimuli/c1_bas3.jpg"",""stimuli/c1_bas4.jpg""]",12618,/Users/martincz/GitHub/COGS119/group_fa24_suspicious_coincidence/analysis/../data/raw_data/p0dl5tzjk4h_1732223898556.csv
NA,NA,html-button-response,14,2.0.0,171860,p0dl5tzjk4h,Beaver,NA,NA,NA,NA,"<img src=""stimuli/c2_sub1.jpg"" style=""width:200px;height:200px; margin: 5px;""><img src=""stimuli/c2_sup2.jpg"" style=""width:200px;height:200px; margin: 5px;""><img src=""stimuli/c2_sup1.jpg"" style=""width:200px;height:200px; margin: 5px;""><p>Here are some feps. Can you give Mr. Frog all the other feps?</p>
                                 <p>Click on all of the feps below. If you change your mind, you can unselect any image.</p>
                                 <p>Click the Submit button when you are done selecting all the feps.</p>",NA,3-item,vehicles,superordinate,"[""stimuli/c2_bas3.jpg"",""stimuli/c2_sup3.jpg"",""stimuli/c2_sub5.jpg"",""stimuli/c2_sup6.jpg"",""stimuli/c2_sup4.jpg"",""stimuli/c2_bas4.jpg"",""stimuli/c2_sub4.jpg"",""stimuli/c2_sup5.jpg""]","[16,5,12,18,21,22,23,6]","[13578,14671,16079,17706,19055,19684,20369,22324]","[""select"",""select"",""select"",""select"",""select"",""select"",""select"",""select""]","[""stimuli/c2_bas3.jpg"",""stimuli/c2_sup3.jpg"",""stimuli/c2_sub5.jpg"",""stimuli/c2_sup6.jpg"",""stimuli/c2_sup4.jpg"",""stimuli/c2_bas4.jpg"",""stimuli/c2_sub4.jpg"",""stimuli/c2_sup5.jpg""]",24556,/Users/martincz/GitHub/COGS119/group_fa24_suspicious_coincidence/analysis/../data/raw_data/p0dl5tzjk4h_1732223898556.csv
NA,NA,html-button-response,15,2.0.0,185209,p0dl5tzjk4h,Beaver,NA,NA,NA,NA,"<img src=""stimuli/c3_sup1.jpg"" style=""width:200px;height:200px; margin: 5px;""><img src=""stimuli/c3_sup2.jpg"" style=""width:200px;height:200px; margin: 5px;""><img src=""stimuli/c3_sub1.jpg"" style=""width:200px;height:200px; margin: 5px;""><p>Here are some rabs. Can you give Mr. Frog all the other rabs?</p>
                                 <p>Click on all of the rabs below. If you change your mind, you can unselect any image.</p>
                                 <p>Click the Submit button when you are done selecting all the rabs.</p>",NA,3-item,animals,superordinate,"[""stimuli/c3_sup4.jpg"",""stimuli/c3_sub4.jpg"",""stimuli/c3_bas3.jpg"",""stimuli/c3_sub5.jpg"",""stimuli/c3_sup6.jpg"",""stimuli/c3_sup5.jpg"",""stimuli/c3_bas4.jpg"",""stimuli/c3_sup3.jpg""]","[4,9,15,13,12,18,22,21]","[5940,6740,7542,8452,9185,10439,11795,12473]","[""select"",""select"",""select"",""select"",""select"",""select"",""select"",""select""]","[""stimuli/c3_sup4.jpg"",""stimuli/c3_sub4.jpg"",""stimuli/c3_bas3.jpg"",""stimuli/c3_sub5.jpg"",""stimuli/c3_sup6.jpg"",""stimuli/c3_sup5.jpg"",""stimuli/c3_bas4.jpg"",""stimuli/c3_sup3.jpg""]",13342,/Users/martincz/GitHub/COGS119/group_fa24_suspicious_coincidence/analysis/../data/raw_data/p0dl5tzjk4h_1732223898556.csv
NA,NA,html-button-response,16,2.0.0,195360,p0dl5tzjk4h,Beaver,NA,NA,NA,NA,"<img src=""stimuli/c3_sub2.jpg"" style=""width:200px;height:200px; margin: 5px;""><img src=""stimuli/c3_sub3.jpg"" style=""width:200px;height:200px; margin: 5px;""><img src=""stimuli/c3_sub1.jpg"" style=""width:200px;height:200px; margin: 5px;""><p>Here are some tevs. Can you give Mr. Frog all the other tevs?</p>
                                 <p>Click on all of the tevs below. If you change your mind, you can unselect any image.</p>
                                 <p>Click the Submit button when you are done selecting all the tevs.</p>",NA,3-item,animals,subordinate,"[""stimuli/c3_sub4.jpg"",""stimuli/c3_sub5.jpg""]","[9,19]","[7466,8994]","[""select"",""select""]","[""stimuli/c3_sub4.jpg"",""stimuli/c3_sub5.jpg""]",10145,/Users/martincz/GitHub/COGS119/group_fa24_suspicious_coincidence/analysis/../data/raw_data/p0dl5tzjk4h_1732223898556.csv
NA,NA,html-button-response,17,2.0.0,200994,p0dl5tzjk4h,Beaver,NA,NA,NA,NA,"<img src=""stimuli/c1_sub3.jpg"" style=""width:200px;height:200px; margin: 5px;""><img src=""stimuli/c1_sub1.jpg"" style=""width:200px;height:200px; margin: 5px;""><img src=""stimuli/c1_sub2.jpg"" style=""width:200px;height:200px; margin: 5px;""><p>Here are some meps. Can you give Mr. Frog all the other meps?</p>
                                 <p>Click on all of the meps below. If you change your mind, you can unselect any image.</p>
                                 <p>Click the Submit button when you are done selecting all the meps.</p>",NA,3-item,vegetables,subordinate,"[""stimuli/c1_sub4.jpg"",""stimuli/c1_sub5.jpg""]","[1,19]","[1740,3786]","[""select"",""select""]","[""stimuli/c1_sub4.jpg"",""stimuli/c1_sub5.jpg""]",5627,/Users/martincz/GitHub/COGS119/group_fa24_suspicious_coincidence/analysis/../data/raw_data/p0dl5tzjk4h_1732223898556.csv
NA,10218,html-keyboard-response,18,2.0.0,211215,p0dl5tzjk4h,Beaver,NA,NA,NA,NA,"
      <p>Thank you for playing! This was a big help for Mr. Frog!</p>
      <img src=""stimuli/mrfrog.png"" alt=""Mr. Frog"" style=""width:300px;height:300px;"">
      <p><i>Debrief</i>: In this experiment, we wanted to see how people learn subordinate word meanings (e.g., “dalmatian”) when</p>
      <p>superordinate (e.g., “animal”) and basic-level (e.g., “dog”) meanings can also be reasonable label referents.</p>
      <p>We thought that when presented with three subordinate exemplars (aka the trials with three images), a word will be generalized</p>
      <p>to the subordinate level more often than when presented with one subordinate exemplar (aka the trials with one image).</p>
      <p><b>*Please press any key to save data.*</b></p>
",NA,NA,NA,NA,NA,NA,NA,NA,NA,NA,/Users/martincz/GitHub/COGS119/group_fa24_suspicious_coincidence/analysis/../data/raw_data/p0dl5tzjk4h_1732223898556.csv
TRUE,1114,fullscreen,0,null,2118,p0go4ncrpwf,panda,NA,NA,NA,NA,NA,NA,NA,NA,NA,NA,NA,NA,NA,NA,NA,/Users/martincz/GitHub/COGS119/group_fa24_suspicious_coincidence/analysis/../data/raw_data/p0go4ncrpwf_1732496928274.csv
TRUE,NA,preload,1,2.0.0,2989,p0go4ncrpwf,panda,FALSE,[],[],[],NA,NA,NA,NA,NA,NA,NA,NA,NA,NA,NA,/Users/martincz/GitHub/COGS119/group_fa24_suspicious_coincidence/analysis/../data/raw_data/p0go4ncrpwf_1732496928274.csv
NA,1187,html-keyboard-response,2,2.0.0,4176,p0go4ncrpwf,panda,NA,NA,NA,NA,Welcome to the experiment. Press any key to begin.,Enter,NA,NA,NA,NA,NA,NA,NA,NA,NA,/Users/martincz/GitHub/COGS119/group_fa24_suspicious_coincidence/analysis/../data/raw_data/p0go4ncrpwf_1732496928274.csv
NA,6919,survey-text,3,2.0.0,11103,p0go4ncrpwf,panda,NA,NA,NA,NA,NA,"{""participant_id"":""panda""}",NA,NA,NA,NA,NA,NA,NA,NA,NA,/Users/martincz/GitHub/COGS119/group_fa24_suspicious_coincidence/analysis/../data/raw_data/p0go4ncrpwf_1732496928274.csv
NA,10041,html-keyboard-response,4,2.0.0,21145,p0go4ncrpwf,panda,NA,NA,NA,NA,"
  <p><b>This is Mr. Frog!</b></p>
  <img src=""stimuli/mrfrog.png"" alt=""Mr. Frog"" style=""width:300px;height:300px;"">
  <p>He speaks a different language and needs help finding the items he wants. Can you help Mr. Frog?</p>
  <p>Press any key to move to the next page.</p>
",Enter,NA,NA,NA,NA,NA,NA,NA,NA,NA,/Users/martincz/GitHub/COGS119/group_fa24_suspicious_coincidence/analysis/../data/raw_data/p0go4ncrpwf_1732496928274.csv
NA,9443,html-keyboard-response,5,2.0.0,30590,p0go4ncrpwf,panda,NA,NA,NA,NA,"
  <img src=""stimuli/mrfrog.png"" alt=""Mr. Frog"" style=""width:300px;height:300px;"">
  <p>In each trial, you will be shown an image that will be labeled with a word in the language that Mr. Frog speaks. </p>
  <p>Your job will be to select all the items that you think matches what Mr. Frog is asking for. </p>
  <p>Press any key to begin.</p>
",Enter,NA,NA,NA,NA,NA,NA,NA,NA,NA,/Users/martincz/GitHub/COGS119/group_fa24_suspicious_coincidence/analysis/../data/raw_data/p0go4ncrpwf_1732496928274.csv
NA,NA,html-button-response,6,2.0.0,52986,p0go4ncrpwf,panda,NA,NA,NA,NA,"<img src=""stimuli/c2_sub1.jpg"" style=""width:200px;height:200px;""> 
              <p>Here is a tob. Can you give Mr. Frog all the other tobs?</p>
              <p>Click on all of the tobs below. If you change your mind, you can unselect any image.</p>
              <p>Click the Submit button when you are done selecting all the tobs.</p>",NA,1-item,vehicles,one-subordinate,"[""stimuli/c1_sup3.jpg""]",[16],[21341],"[""select""]","[""stimuli/c1_sup3.jpg""]",22392,/Users/martincz/GitHub/COGS119/group_fa24_suspicious_coincidence/analysis/../data/raw_data/p0go4ncrpwf_1732496928274.csv
NA,NA,html-button-response,7,2.0.0,66636,p0go4ncrpwf,panda,NA,NA,NA,NA,"<img src=""stimuli/c3_sub1.jpg"" style=""width:200px;height:200px;""> 
              <p>Here is a fep. Can you give Mr. Frog all the other feps?</p>
              <p>Click on all of the feps below. If you change your mind, you can unselect any image.</p>
              <p>Click the Submit button when you are done selecting all the feps.</p>",NA,1-item,animals,one-subordinate,"[""stimuli/c3_sup6.jpg""]",[17],[12417],"[""select""]","[""stimuli/c3_sup6.jpg""]",13647,/Users/martincz/GitHub/COGS119/group_fa24_suspicious_coincidence/analysis/../data/raw_data/p0go4ncrpwf_1732496928274.csv
NA,NA,html-button-response,8,2.0.0,73824,p0go4ncrpwf,panda,NA,NA,NA,NA,"<img src=""stimuli/c1_sub1.jpg"" style=""width:200px;height:200px;""> 
              <p>Here is a sib. Can you give Mr. Frog all the other sibs?</p>
              <p>Click on all of the sibs below. If you change your mind, you can unselect any image.</p>
              <p>Click the Submit button when you are done selecting all the sibs.</p>",NA,1-item,vegetables,one-subordinate,"[""stimuli/c1_sub4.jpg"",""stimuli/c1_sub5.jpg"",""stimuli/c1_bas3.jpg"",""stimuli/c1_bas4.jpg""]","[1,2,3,19]","[3163,3601,4035,5918]","[""select"",""select"",""select"",""select""]","[""stimuli/c1_sub4.jpg"",""stimuli/c1_sub5.jpg"",""stimuli/c1_bas3.jpg"",""stimuli/c1_bas4.jpg""]",7186,/Users/martincz/GitHub/COGS119/group_fa24_suspicious_coincidence/analysis/../data/raw_data/p0go4ncrpwf_1732496928274.csv
NA,NA,html-button-response,9,2.0.0,87323,p0go4ncrpwf,panda,NA,NA,NA,NA,"<img src=""stimuli/c2_bas1.jpg"" style=""width:200px;height:200px; margin: 5px;""><img src=""stimuli/c2_sub1.jpg"" style=""width:200px;height:200px; margin: 5px;""><img src=""stimuli/c2_bas2.jpg"" style=""width:200px;height:200px; margin: 5px;""><p>Here are some meps. Can you give Mr. Frog all the other meps?</p>
                                 <p>Click on all of the meps below. If you change your mind, you can unselect any image.</p>
                                 <p>Click the Submit button when you are done selecting all the meps.</p>",NA,3-item,vehicles,basic,"[""stimuli/c2_sup5.jpg"",""stimuli/c2_sup3.jpg"",""stimuli/c2_sup5.jpg"",""stimuli/c2_sup4.jpg""]","[6,7,6,15]","[4480,5798,6382,8771]","[""select"",""select"",""unselect"",""select""]","[""stimuli/c2_sup3.jpg"",""stimuli/c2_sup4.jpg""]",13495,/Users/martincz/GitHub/COGS119/group_fa24_suspicious_coincidence/analysis/../data/raw_data/p0go4ncrpwf_1732496928274.csv
NA,NA,html-button-response,10,2.0.0,100956,p0go4ncrpwf,panda,NA,NA,NA,NA,"<img src=""stimuli/c1_bas1.jpg"" style=""width:200px;height:200px; margin: 5px;""><img src=""stimuli/c1_sub1.jpg"" style=""width:200px;height:200px; margin: 5px;""><img src=""stimuli/c1_bas2.jpg"" style=""width:200px;height:200px; margin: 5px;""><p>Here are some zoms. Can you give Mr. Frog all the other zoms?</p>
                                 <p>Click on all of the zoms below. If you change your mind, you can unselect any image.</p>
                                 <p>Click the Submit button when you are done selecting all the zoms.</p>",NA,3-item,vegetables,basic,"[""stimuli/c1_sup6.jpg"",""stimuli/c2_sup3.jpg"",""stimuli/c3_sup6.jpg"",""stimuli/c3_sup4.jpg"",""stimuli/c3_sup4.jpg"",""stimuli/c3_sup6.jpg"",""stimuli/c2_sup3.jpg"",""stimuli/c1_sup6.jpg"",""stimuli/c1_sup6.jpg""]","[3,2,1,0,0,1,2,3,3]","[3968,4413,4881,5247,5680,6084,7097,8864,10530]","[""select"",""select"",""select"",""select"",""unselect"",""unselect"",""unselect"",""unselect"",""select""]","[""stimuli/c1_sup6.jpg""]",13630,/Users/martincz/GitHub/COGS119/group_fa24_suspicious_coincidence/analysis/../data/raw_data/p0go4ncrpwf_1732496928274.csv
NA,NA,html-button-response,11,2.0.0,104956,p0go4ncrpwf,panda,NA,NA,NA,NA,"<img src=""stimuli/c2_sub3.jpg"" style=""width:200px;height:200px; margin: 5px;""><img src=""stimuli/c2_sub1.jpg"" style=""width:200px;height:200px; margin: 5px;""><img src=""stimuli/c2_sub2.jpg"" style=""width:200px;height:200px; margin: 5px;""><p>Here are some tobs. Can you give Mr. Frog all the other tobs?</p>
                                 <p>Click on all of the tobs below. If you change your mind, you can unselect any image.</p>
                                 <p>Click the Submit button when you are done selecting all the tobs.</p>",NA,3-item,vehicles,subordinate,"[""stimuli/c2_sup4.jpg""]",[12],[2798],"[""select""]","[""stimuli/c2_sup4.jpg""]",3997,/Users/martincz/GitHub/COGS119/group_fa24_suspicious_coincidence/analysis/../data/raw_data/p0go4ncrpwf_1732496928274.csv
NA,NA,html-button-response,12,2.0.0,110006,p0go4ncrpwf,panda,NA,NA,NA,NA,"<img src=""stimuli/c2_sup1.jpg"" style=""width:200px;height:200px; margin: 5px;""><img src=""stimuli/c2_sup2.jpg"" style=""width:200px;height:200px; margin: 5px;""><img src=""stimuli/c2_sub1.jpg"" style=""width:200px;height:200px; margin: 5px;""><p>Here are some rifs. Can you give Mr. Frog all the other rifs?</p>
                                 <p>Click on all of the rifs below. If you change your mind, you can unselect any image.</p>
                                 <p>Click the Submit button when you are done selecting all the rifs.</p>",NA,3-item,vehicles,superordinate,"[""stimuli/c3_bas3.jpg""]",[23],[3682],"[""select""]","[""stimuli/c3_bas3.jpg""]",5047,/Users/martincz/GitHub/COGS119/group_fa24_suspicious_coincidence/analysis/../data/raw_data/p0go4ncrpwf_1732496928274.csv
NA,NA,html-button-response,13,2.0.0,128243,p0go4ncrpwf,panda,NA,NA,NA,NA,"<img src=""stimuli/c1_sup2.jpg"" style=""width:200px;height:200px; margin: 5px;""><img src=""stimuli/c1_sub1.jpg"" style=""width:200px;height:200px; margin: 5px;""><img src=""stimuli/c1_sup1.jpg"" style=""width:200px;height:200px; margin: 5px;""><p>Here are some tevs. Can you give Mr. Frog all the other tevs?</p>
                                 <p>Click on all of the tevs below. If you change your mind, you can unselect any image.</p>
                                 <p>Click the Submit button when you are done selecting all the tevs.</p>",NA,3-item,vegetables,superordinate,"[""stimuli/c1_sup4.jpg"",""stimuli/c1_sup3.jpg"",""stimuli/c1_sub5.jpg"",""stimuli/c1_bas3.jpg"",""stimuli/c1_sub4.jpg"",""stimuli/c1_bas4.jpg"",""stimuli/c1_sup5.jpg""]","[7,0,1,3,16,20,18]","[9309,10095,11214,11979,12548,14181,17082]","[""select"",""select"",""select"",""select"",""select"",""select"",""select""]","[""stimuli/c1_sup4.jpg"",""stimuli/c1_sup3.jpg"",""stimuli/c1_sub5.jpg"",""stimuli/c1_bas3.jpg"",""stimuli/c1_sub4.jpg"",""stimuli/c1_bas4.jpg"",""stimuli/c1_sup5.jpg""]",18234,/Users/martincz/GitHub/COGS119/group_fa24_suspicious_coincidence/analysis/../data/raw_data/p0go4ncrpwf_1732496928274.csv
NA,NA,html-button-response,14,2.0.0,135406,p0go4ncrpwf,panda,NA,NA,NA,NA,"<img src=""stimuli/c3_sub2.jpg"" style=""width:200px;height:200px; margin: 5px;""><img src=""stimuli/c3_sub1.jpg"" style=""width:200px;height:200px; margin: 5px;""><img src=""stimuli/c3_sub3.jpg"" style=""width:200px;height:200px; margin: 5px;""><p>Here are some feps. Can you give Mr. Frog all the other feps?</p>
                                 <p>Click on all of the feps below. If you change your mind, you can unselect any image.</p>
                                 <p>Click the Submit button when you are done selecting all the feps.</p>",NA,3-item,animals,subordinate,"[""stimuli/c3_sub5.jpg"",""stimuli/c3_bas4.jpg"",""stimuli/c3_sub4.jpg"",""stimuli/c3_bas3.jpg""]","[7,14,21,4]","[2526,3709,4476,5695]","[""select"",""select"",""select"",""select""]","[""stimuli/c3_sub5.jpg"",""stimuli/c3_bas4.jpg"",""stimuli/c3_sub4.jpg"",""stimuli/c3_bas3.jpg""]",7159,/Users/martincz/GitHub/COGS119/group_fa24_suspicious_coincidence/analysis/../data/raw_data/p0go4ncrpwf_1732496928274.csv
NA,NA,html-button-response,15,2.0.0,146500,p0go4ncrpwf,panda,NA,NA,NA,NA,"<img src=""stimuli/c3_sup1.jpg"" style=""width:200px;height:200px; margin: 5px;""><img src=""stimuli/c3_sub1.jpg"" style=""width:200px;height:200px; margin: 5px;""><img src=""stimuli/c3_sup2.jpg"" style=""width:200px;height:200px; margin: 5px;""><p>Here are some rabs. Can you give Mr. Frog all the other rabs?</p>
                                 <p>Click on all of the rabs below. If you change your mind, you can unselect any image.</p>
                                 <p>Click the Submit button when you are done selecting all the rabs.</p>",NA,3-item,animals,superordinate,"[""stimuli/c3_sub4.jpg"",""stimuli/c3_sup3.jpg"",""stimuli/c3_sup5.jpg"",""stimuli/c3_bas3.jpg"",""stimuli/c3_bas4.jpg"",""stimuli/c3_sup4.jpg"",""stimuli/c3_sub5.jpg"",""stimuli/c3_sup6.jpg""]","[6,8,3,4,14,12,18,22]","[6264,6815,7412,7831,8419,9380,9764,10365]","[""select"",""select"",""select"",""select"",""select"",""select"",""select"",""select""]","[""stimuli/c3_sub4.jpg"",""stimuli/c3_sup3.jpg"",""stimuli/c3_sup5.jpg"",""stimuli/c3_bas3.jpg"",""stimuli/c3_bas4.jpg"",""stimuli/c3_sup4.jpg"",""stimuli/c3_sub5.jpg"",""stimuli/c3_sup6.jpg""]",11096,/Users/martincz/GitHub/COGS119/group_fa24_suspicious_coincidence/analysis/../data/raw_data/p0go4ncrpwf_1732496928274.csv
NA,NA,html-button-response,16,2.0.0,153097,p0go4ncrpwf,panda,NA,NA,NA,NA,"<img src=""stimuli/c1_sub3.jpg"" style=""width:200px;height:200px; margin: 5px;""><img src=""stimuli/c1_sub1.jpg"" style=""width:200px;height:200px; margin: 5px;""><img src=""stimuli/c1_sub2.jpg"" style=""width:200px;height:200px; margin: 5px;""><p>Here are some sibs. Can you give Mr. Frog all the other sibs?</p>
                                 <p>Click on all of the sibs below. If you change your mind, you can unselect any image.</p>
                                 <p>Click the Submit button when you are done selecting all the sibs.</p>",NA,3-item,vegetables,subordinate,"[""stimuli/c1_bas3.jpg"",""stimuli/c1_sub5.jpg"",""stimuli/c1_bas4.jpg"",""stimuli/c1_sub4.jpg""]","[7,12,5,23]","[1518,2033,4520,5214]","[""select"",""select"",""select"",""select""]","[""stimuli/c1_bas3.jpg"",""stimuli/c1_sub5.jpg"",""stimuli/c1_bas4.jpg"",""stimuli/c1_sub4.jpg""]",6597,/Users/martincz/GitHub/COGS119/group_fa24_suspicious_coincidence/analysis/../data/raw_data/p0go4ncrpwf_1732496928274.csv
NA,NA,html-button-response,17,2.0.0,159993,p0go4ncrpwf,panda,NA,NA,NA,NA,"<img src=""stimuli/c3_bas1.jpg"" style=""width:200px;height:200px; margin: 5px;""><img src=""stimuli/c3_bas2.jpg"" style=""width:200px;height:200px; margin: 5px;""><img src=""stimuli/c3_sub1.jpg"" style=""width:200px;height:200px; margin: 5px;""><p>Here are some wugs. Can you give Mr. Frog all the other wugs?</p>
                                 <p>Click on all of the wugs below. If you change your mind, you can unselect any image.</p>
                                 <p>Click the Submit button when you are done selecting all the wugs.</p>",NA,3-item,animals,basic,"[""stimuli/c3_bas4.jpg"",""stimuli/c3_sup4.jpg"",""stimuli/c3_bas3.jpg"",""stimuli/c3_sub5.jpg"",""stimuli/c3_sub4.jpg""]","[1,0,22,19,10]","[2389,2781,5032,5583,6231]","[""select"",""select"",""select"",""select"",""select""]","[""stimuli/c3_bas4.jpg"",""stimuli/c3_sup4.jpg"",""stimuli/c3_bas3.jpg"",""stimuli/c3_sub5.jpg"",""stimuli/c3_sub4.jpg""]",6895,/Users/martincz/GitHub/COGS119/group_fa24_suspicious_coincidence/analysis/../data/raw_data/p0go4ncrpwf_1732496928274.csv
NA,8389,html-keyboard-response,18,2.0.0,168384,p0go4ncrpwf,panda,NA,NA,NA,NA,"
      <p>Thank you for playing! This was a big help for Mr. Frog!</p>
      <img src=""stimuli/mrfrog.png"" alt=""Mr. Frog"" style=""width:300px;height:300px;"">
      <p><i>Debrief</i>: In this experiment, we wanted to see how people learn subordinate word meanings (e.g., “dalmatian”) when</p>
      <p>superordinate (e.g., “animal”) and basic-level (e.g., “dog”) meanings can also be reasonable label referents.</p>
      <p>We thought that when presented with three subordinate exemplars (aka the trials with three images), a word will be generalized</p>
      <p>to the subordinate level more often than when presented with one subordinate exemplar (aka the trials with one image).</p>
      <p><b>*Please press any key to save data.*</b></p>
",Enter,NA,NA,NA,NA,NA,NA,NA,NA,NA,/Users/martincz/GitHub/COGS119/group_fa24_suspicious_coincidence/analysis/../data/raw_data/p0go4ncrpwf_1732496928274.csv
TRUE,1260,fullscreen,0,null,2266,p0tm9mgvowx,otter,NA,NA,NA,NA,NA,NA,NA,NA,NA,NA,NA,NA,NA,NA,NA,/Users/martincz/GitHub/COGS119/group_fa24_suspicious_coincidence/analysis/../data/raw_data/p0tm9mgvowx_1732224894843.csv
TRUE,NA,preload,1,2.0.0,2816,p0tm9mgvowx,otter,FALSE,[],[],[],NA,NA,NA,NA,NA,NA,NA,NA,NA,NA,NA,/Users/martincz/GitHub/COGS119/group_fa24_suspicious_coincidence/analysis/../data/raw_data/p0tm9mgvowx_1732224894843.csv
NA,1328,html-keyboard-response,2,2.0.0,4147,p0tm9mgvowx,otter,NA,NA,NA,NA,Welcome to the experiment. Press any key to begin.,NA,NA,NA,NA,NA,NA,NA,NA,NA,NA,/Users/martincz/GitHub/COGS119/group_fa24_suspicious_coincidence/analysis/../data/raw_data/p0tm9mgvowx_1732224894843.csv
NA,2216,survey-text,3,2.0.0,6382,p0tm9mgvowx,otter,NA,NA,NA,NA,NA,"{""participant_id"":""otter""}",NA,NA,NA,NA,NA,NA,NA,NA,NA,/Users/martincz/GitHub/COGS119/group_fa24_suspicious_coincidence/analysis/../data/raw_data/p0tm9mgvowx_1732224894843.csv
NA,7352,html-keyboard-response,4,2.0.0,13737,p0tm9mgvowx,otter,NA,NA,NA,NA,"
  <p><b>This is Mr. Frog!</b></p>
  <img src=""stimuli/mrfrog.png"" alt=""Mr. Frog"" style=""width:300px;height:300px;"">
  <p>He speaks a different language and needs help finding the items he wants. Can you help Mr. Frog?</p>
  <p>Press any key to move to the next page.</p>
",b,NA,NA,NA,NA,NA,NA,NA,NA,NA,/Users/martincz/GitHub/COGS119/group_fa24_suspicious_coincidence/analysis/../data/raw_data/p0tm9mgvowx_1732224894843.csv
NA,16042,html-keyboard-response,5,2.0.0,29782,p0tm9mgvowx,otter,NA,NA,NA,NA,"
  <img src=""stimuli/mrfrog.png"" alt=""Mr. Frog"" style=""width:300px;height:300px;"">
  <p>In each trial, you will be shown an image that will be labeled with a word in the language that Mr. Frog speaks. </p>
  <p>Your job will be to select all the items that you think matches what Mr. Frog is asking for. </p>
  <p>Press any key to begin.</p>
",b,NA,NA,NA,NA,NA,NA,NA,NA,NA,/Users/martincz/GitHub/COGS119/group_fa24_suspicious_coincidence/analysis/../data/raw_data/p0tm9mgvowx_1732224894843.csv
NA,NA,html-button-response,6,2.0.0,48444,p0tm9mgvowx,otter,NA,NA,NA,NA,"<img src=""stimuli/c2_sub1.jpg"" style=""width:200px;height:200px;""> 
              <p>Here is a mep. Can you give Mr. Frog all the other meps?</p>
              <p>Click on all of the meps below. If you change your mind, you can unselect any image.</p>
              <p>Click the Submit button when you are done selecting all the meps.</p>",NA,1-item,vehicles,one-subordinate,"[""stimuli/c2_sub4.jpg"",""stimuli/c2_sub5.jpg"",""stimuli/c2_bas4.jpg""]","[2,16,21]","[14545,15339,16505]","[""select"",""select"",""select""]","[""stimuli/c2_sub4.jpg"",""stimuli/c2_sub5.jpg"",""stimuli/c2_bas4.jpg""]",18655,/Users/martincz/GitHub/COGS119/group_fa24_suspicious_coincidence/analysis/../data/raw_data/p0tm9mgvowx_1732224894843.csv
NA,NA,html-button-response,7,2.0.0,55412,p0tm9mgvowx,otter,NA,NA,NA,NA,"<img src=""stimuli/c1_sub1.jpg"" style=""width:200px;height:200px;""> 
              <p>Here is a tev. Can you give Mr. Frog all the other tevs?</p>
              <p>Click on all of the tevs below. If you change your mind, you can unselect any image.</p>
              <p>Click the Submit button when you are done selecting all the tevs.</p>",NA,1-item,vegetables,one-subordinate,"[""stimuli/c1_sub4.jpg"",""stimuli/c1_bas3.jpg"",""stimuli/c1_sub5.jpg"",""stimuli/c1_sub5.jpg""]","[0,13,20,20]","[2680,4481,5498,5631]","[""select"",""select"",""select"",""unselect""]","[""stimuli/c1_sub4.jpg"",""stimuli/c1_bas3.jpg""]",6965,/Users/martincz/GitHub/COGS119/group_fa24_suspicious_coincidence/analysis/../data/raw_data/p0tm9mgvowx_1732224894843.csv
NA,NA,html-button-response,8,2.0.0,64194,p0tm9mgvowx,otter,NA,NA,NA,NA,"<img src=""stimuli/c3_sub1.jpg"" style=""width:200px;height:200px;""> 
              <p>Here is a wug. Can you give Mr. Frog all the other wugs?</p>
              <p>Click on all of the wugs below. If you change your mind, you can unselect any image.</p>
              <p>Click the Submit button when you are done selecting all the wugs.</p>",NA,1-item,animals,one-subordinate,"[""stimuli/c3_sub5.jpg"",""stimuli/c3_sub4.jpg""]","[23,18]","[6445,7332]","[""select"",""select""]","[""stimuli/c3_sub5.jpg"",""stimuli/c3_sub4.jpg""]",8778,/Users/martincz/GitHub/COGS119/group_fa24_suspicious_coincidence/analysis/../data/raw_data/p0tm9mgvowx_1732224894843.csv
NA,NA,html-button-response,9,2.0.0,73530,p0tm9mgvowx,otter,NA,NA,NA,NA,"<img src=""stimuli/c3_sub1.jpg"" style=""width:200px;height:200px; margin: 5px;""><img src=""stimuli/c3_sub3.jpg"" style=""width:200px;height:200px; margin: 5px;""><img src=""stimuli/c3_sub2.jpg"" style=""width:200px;height:200px; margin: 5px;""><p>Here are some wugs. Can you give Mr. Frog all the other wugs?</p>
                                 <p>Click on all of the wugs below. If you change your mind, you can unselect any image.</p>
                                 <p>Click the Submit button when you are done selecting all the wugs.</p>",NA,3-item,animals,subordinate,"[""stimuli/c3_sub4.jpg"",""stimuli/c3_sub5.jpg""]","[6,4]","[3913,8267]","[""select"",""select""]","[""stimuli/c3_sub4.jpg"",""stimuli/c3_sub5.jpg""]",9331,/Users/martincz/GitHub/COGS119/group_fa24_suspicious_coincidence/analysis/../data/raw_data/p0tm9mgvowx_1732224894843.csv
NA,NA,html-button-response,10,2.0.0,79916,p0tm9mgvowx,otter,NA,NA,NA,NA,"<img src=""stimuli/c2_sub2.jpg"" style=""width:200px;height:200px; margin: 5px;""><img src=""stimuli/c2_sub3.jpg"" style=""width:200px;height:200px; margin: 5px;""><img src=""stimuli/c2_sub1.jpg"" style=""width:200px;height:200px; margin: 5px;""><p>Here are some meps. Can you give Mr. Frog all the other meps?</p>
                                 <p>Click on all of the meps below. If you change your mind, you can unselect any image.</p>
                                 <p>Click the Submit button when you are done selecting all the meps.</p>",NA,3-item,vehicles,subordinate,"[""stimuli/c2_sub4.jpg"",""stimuli/c2_sub5.jpg""]","[0,12]","[3465,4864]","[""select"",""select""]","[""stimuli/c2_sub4.jpg"",""stimuli/c2_sub5.jpg""]",6382,/Users/martincz/GitHub/COGS119/group_fa24_suspicious_coincidence/analysis/../data/raw_data/p0tm9mgvowx_1732224894843.csv
NA,NA,html-button-response,11,2.0.0,85295,p0tm9mgvowx,otter,NA,NA,NA,NA,"<img src=""stimuli/c3_sup1.jpg"" style=""width:200px;height:200px; margin: 5px;""><img src=""stimuli/c3_sub1.jpg"" style=""width:200px;height:200px; margin: 5px;""><img src=""stimuli/c3_sup2.jpg"" style=""width:200px;height:200px; margin: 5px;""><p>Here are some feps. Can you give Mr. Frog all the other feps?</p>
                                 <p>Click on all of the feps below. If you change your mind, you can unselect any image.</p>
                                 <p>Click the Submit button when you are done selecting all the feps.</p>",NA,3-item,animals,superordinate,"[""stimuli/c3_sub5.jpg"",""stimuli/c3_sub4.jpg""]","[15,3]","[2547,3429]","[""select"",""select""]","[""stimuli/c3_sub5.jpg"",""stimuli/c3_sub4.jpg""]",5376,/Users/martincz/GitHub/COGS119/group_fa24_suspicious_coincidence/analysis/../data/raw_data/p0tm9mgvowx_1732224894843.csv
NA,NA,html-button-response,12,2.0.0,99878,p0tm9mgvowx,otter,NA,NA,NA,NA,"<img src=""stimuli/c2_sup1.jpg"" style=""width:200px;height:200px; margin: 5px;""><img src=""stimuli/c2_sub1.jpg"" style=""width:200px;height:200px; margin: 5px;""><img src=""stimuli/c2_sup2.jpg"" style=""width:200px;height:200px; margin: 5px;""><p>Here are some sibs. Can you give Mr. Frog all the other sibs?</p>
                                 <p>Click on all of the sibs below. If you change your mind, you can unselect any image.</p>
                                 <p>Click the Submit button when you are done selecting all the sibs.</p>",NA,3-item,vehicles,superordinate,"[""stimuli/c2_bas3.jpg"",""stimuli/c2_sub4.jpg"",""stimuli/c2_bas4.jpg"",""stimuli/c2_sub5.jpg""]","[1,6,5,21]","[4465,5311,6696,8449]","[""select"",""select"",""select"",""select""]","[""stimuli/c2_bas3.jpg"",""stimuli/c2_sub4.jpg"",""stimuli/c2_bas4.jpg"",""stimuli/c2_sub5.jpg""]",14578,/Users/martincz/GitHub/COGS119/group_fa24_suspicious_coincidence/analysis/../data/raw_data/p0tm9mgvowx_1732224894843.csv
NA,NA,html-button-response,13,2.0.0,108461,p0tm9mgvowx,otter,NA,NA,NA,NA,"<img src=""stimuli/c1_bas2.jpg"" style=""width:200px;height:200px; margin: 5px;""><img src=""stimuli/c1_sub1.jpg"" style=""width:200px;height:200px; margin: 5px;""><img src=""stimuli/c1_bas1.jpg"" style=""width:200px;height:200px; margin: 5px;""><p>Here are some tobs. Can you give Mr. Frog all the other tobs?</p>
                                 <p>Click on all of the tobs below. If you change your mind, you can unselect any image.</p>
                                 <p>Click the Submit button when you are done selecting all the tobs.</p>",NA,3-item,vegetables,basic,"[""stimuli/c1_sub5.jpg"",""stimuli/c1_sub4.jpg"",""stimuli/c1_bas4.jpg"",""stimuli/c1_bas3.jpg""]","[2,1,14,16]","[2164,2746,4426,5532]","[""select"",""select"",""select"",""select""]","[""stimuli/c1_sub5.jpg"",""stimuli/c1_sub4.jpg"",""stimuli/c1_bas4.jpg"",""stimuli/c1_bas3.jpg""]",8576,/Users/martincz/GitHub/COGS119/group_fa24_suspicious_coincidence/analysis/../data/raw_data/p0tm9mgvowx_1732224894843.csv
NA,NA,html-button-response,14,2.0.0,120112,p0tm9mgvowx,otter,NA,NA,NA,NA,"<img src=""stimuli/c1_sup2.jpg"" style=""width:200px;height:200px; margin: 5px;""><img src=""stimuli/c1_sub1.jpg"" style=""width:200px;height:200px; margin: 5px;""><img src=""stimuli/c1_sup1.jpg"" style=""width:200px;height:200px; margin: 5px;""><p>Here are some rabs. Can you give Mr. Frog all the other rabs?</p>
                                 <p>Click on all of the rabs below. If you change your mind, you can unselect any image.</p>
                                 <p>Click the Submit button when you are done selecting all the rabs.</p>",NA,3-item,vegetables,superordinate,"[""stimuli/c1_sub5.jpg"",""stimuli/c1_sub4.jpg"",""stimuli/c1_sup5.jpg""]","[2,13,17]","[2547,3483,6500]","[""select"",""select"",""select""]","[""stimuli/c1_sub5.jpg"",""stimuli/c1_sub4.jpg"",""stimuli/c1_sup5.jpg""]",11648,/Users/martincz/GitHub/COGS119/group_fa24_suspicious_coincidence/analysis/../data/raw_data/p0tm9mgvowx_1732224894843.csv
NA,NA,html-button-response,15,2.0.0,134511,p0tm9mgvowx,otter,NA,NA,NA,NA,"<img src=""stimuli/c3_bas2.jpg"" style=""width:200px;height:200px; margin: 5px;""><img src=""stimuli/c3_sub1.jpg"" style=""width:200px;height:200px; margin: 5px;""><img src=""stimuli/c3_bas1.jpg"" style=""width:200px;height:200px; margin: 5px;""><p>Here are some zoms. Can you give Mr. Frog all the other zoms?</p>
                                 <p>Click on all of the zoms below. If you change your mind, you can unselect any image.</p>
                                 <p>Click the Submit button when you are done selecting all the zoms.</p>",NA,3-item,animals,basic,"[""stimuli/c3_sub5.jpg"",""stimuli/c3_sub4.jpg""]","[0,19]","[3526,6996]","[""select"",""select""]","[""stimuli/c3_sub5.jpg"",""stimuli/c3_sub4.jpg""]",14395,/Users/martincz/GitHub/COGS119/group_fa24_suspicious_coincidence/analysis/../data/raw_data/p0tm9mgvowx_1732224894843.csv
NA,NA,html-button-response,16,2.0.0,139498,p0tm9mgvowx,otter,NA,NA,NA,NA,"<img src=""stimuli/c1_sub2.jpg"" style=""width:200px;height:200px; margin: 5px;""><img src=""stimuli/c1_sub3.jpg"" style=""width:200px;height:200px; margin: 5px;""><img src=""stimuli/c1_sub1.jpg"" style=""width:200px;height:200px; margin: 5px;""><p>Here are some tevs. Can you give Mr. Frog all the other tevs?</p>
                                 <p>Click on all of the tevs below. If you change your mind, you can unselect any image.</p>
                                 <p>Click the Submit button when you are done selecting all the tevs.</p>",NA,3-item,vegetables,subordinate,"[""stimuli/c1_sub4.jpg"",""stimuli/c1_sub5.jpg""]","[7,22]","[1979,3467]","[""select"",""select""]","[""stimuli/c1_sub4.jpg"",""stimuli/c1_sub5.jpg""]",4984,/Users/martincz/GitHub/COGS119/group_fa24_suspicious_coincidence/analysis/../data/raw_data/p0tm9mgvowx_1732224894843.csv
NA,NA,html-button-response,17,2.0.0,156461,p0tm9mgvowx,otter,NA,NA,NA,NA,"<img src=""stimuli/c2_bas2.jpg"" style=""width:200px;height:200px; margin: 5px;""><img src=""stimuli/c2_sub1.jpg"" style=""width:200px;height:200px; margin: 5px;""><img src=""stimuli/c2_bas1.jpg"" style=""width:200px;height:200px; margin: 5px;""><p>Here are some rifs. Can you give Mr. Frog all the other rifs?</p>
                                 <p>Click on all of the rifs below. If you change your mind, you can unselect any image.</p>
                                 <p>Click the Submit button when you are done selecting all the rifs.</p>",NA,3-item,vehicles,basic,"[""stimuli/c2_bas4.jpg"",""stimuli/c2_bas4.jpg"",""stimuli/c2_sub4.jpg"",""stimuli/c2_sub5.jpg""]","[20,20,22,9]","[10361,12976,13797,14546]","[""select"",""unselect"",""select"",""select""]","[""stimuli/c2_sub4.jpg"",""stimuli/c2_sub5.jpg""]",16961,/Users/martincz/GitHub/COGS119/group_fa24_suspicious_coincidence/analysis/../data/raw_data/p0tm9mgvowx_1732224894843.csv
NA,5911,html-keyboard-response,18,2.0.0,162375,p0tm9mgvowx,otter,NA,NA,NA,NA,"
      <p>Thank you for playing! This was a big help for Mr. Frog!</p>
      <img src=""stimuli/mrfrog.png"" alt=""Mr. Frog"" style=""width:300px;height:300px;"">
      <p><i>Debrief</i>: In this experiment, we wanted to see how people learn subordinate word meanings (e.g., “dalmatian”) when</p>
      <p>superordinate (e.g., “animal”) and basic-level (e.g., “dog”) meanings can also be reasonable label referents.</p>
      <p>We thought that when presented with three subordinate exemplars (aka the trials with three images), a word will be generalized</p>
      <p>to the subordinate level more often than when presented with one subordinate exemplar (aka the trials with one image).</p>
      <p><b>*Please press any key to save data.*</b></p>
",h,NA,NA,NA,NA,NA,NA,NA,NA,NA,/Users/martincz/GitHub/COGS119/group_fa24_suspicious_coincidence/analysis/../data/raw_data/p0tm9mgvowx_1732224894843.csv
TRUE,974,fullscreen,0,null,1982,p10j4aq34cj,shark,NA,NA,NA,NA,NA,NA,NA,NA,NA,NA,NA,NA,NA,NA,NA,/Users/martincz/GitHub/COGS119/group_fa24_suspicious_coincidence/analysis/../data/raw_data/p10j4aq34cj_1732485465895.csv
TRUE,NA,preload,1,2.0.0,1986,p10j4aq34cj,shark,FALSE,[],[],[],NA,NA,NA,NA,NA,NA,NA,NA,NA,NA,NA,/Users/martincz/GitHub/COGS119/group_fa24_suspicious_coincidence/analysis/../data/raw_data/p10j4aq34cj_1732485465895.csv
NA,1032,html-keyboard-response,2,2.0.0,3019,p10j4aq34cj,shark,NA,NA,NA,NA,Welcome to the experiment. Press any key to begin.,NA,NA,NA,NA,NA,NA,NA,NA,NA,NA,/Users/martincz/GitHub/COGS119/group_fa24_suspicious_coincidence/analysis/../data/raw_data/p10j4aq34cj_1732485465895.csv
NA,2106,survey-text,3,2.0.0,5127,p10j4aq34cj,shark,NA,NA,NA,NA,NA,"{""participant_id"":""shark""}",NA,NA,NA,NA,NA,NA,NA,NA,NA,/Users/martincz/GitHub/COGS119/group_fa24_suspicious_coincidence/analysis/../data/raw_data/p10j4aq34cj_1732485465895.csv
NA,33989,html-keyboard-response,4,2.0.0,39117,p10j4aq34cj,shark,NA,NA,NA,NA,"
  <p><b>This is Mr. Frog!</b></p>
  <img src=""stimuli/mrfrog.png"" alt=""Mr. Frog"" style=""width:300px;height:300px;"">
  <p>He speaks a different language and needs help finding the items he wants. Can you help Mr. Frog?</p>
  <p>Press any key to move to the next page.</p>
",NA,NA,NA,NA,NA,NA,NA,NA,NA,NA,/Users/martincz/GitHub/COGS119/group_fa24_suspicious_coincidence/analysis/../data/raw_data/p10j4aq34cj_1732485465895.csv
NA,2111,html-keyboard-response,5,2.0.0,41228,p10j4aq34cj,shark,NA,NA,NA,NA,"
  <img src=""stimuli/mrfrog.png"" alt=""Mr. Frog"" style=""width:300px;height:300px;"">
  <p>In each trial, you will be shown an image that will be labeled with a word in the language that Mr. Frog speaks. </p>
  <p>Your job will be to select all the items that you think matches what Mr. Frog is asking for. </p>
  <p>Press any key to begin.</p>
",NA,NA,NA,NA,NA,NA,NA,NA,NA,NA,/Users/martincz/GitHub/COGS119/group_fa24_suspicious_coincidence/analysis/../data/raw_data/p10j4aq34cj_1732485465895.csv
NA,NA,html-button-response,6,2.0.0,57915,p10j4aq34cj,shark,NA,NA,NA,NA,"<img src=""stimuli/c2_sub1.jpg"" style=""width:200px;height:200px;""> 
              <p>Here is a tob. Can you give Mr. Frog all the other tobs?</p>
              <p>Click on all of the tobs below. If you change your mind, you can unselect any image.</p>
              <p>Click the Submit button when you are done selecting all the tobs.</p>",NA,1-item,vehicles,one-subordinate,"[""stimuli/c2_sub4.jpg"",""stimuli/c2_sub5.jpg"",""stimuli/c2_bas3.jpg"",""stimuli/c2_bas4.jpg""]","[16,19,9,1]","[14474,15012,15448,15970]","[""select"",""select"",""select"",""select""]","[""stimuli/c2_sub4.jpg"",""stimuli/c2_sub5.jpg"",""stimuli/c2_bas3.jpg"",""stimuli/c2_bas4.jpg""]",16684,/Users/martincz/GitHub/COGS119/group_fa24_suspicious_coincidence/analysis/../data/raw_data/p10j4aq34cj_1732485465895.csv
NA,NA,html-button-response,7,2.0.0,65802,p10j4aq34cj,shark,NA,NA,NA,NA,"<img src=""stimuli/c3_sub1.jpg"" style=""width:200px;height:200px;""> 
              <p>Here is a fep. Can you give Mr. Frog all the other feps?</p>
              <p>Click on all of the feps below. If you change your mind, you can unselect any image.</p>
              <p>Click the Submit button when you are done selecting all the feps.</p>",NA,1-item,animals,one-subordinate,"[""stimuli/c3_bas3.jpg"",""stimuli/c3_bas4.jpg"",""stimuli/c3_sub4.jpg"",""stimuli/c3_sub5.jpg""]","[0,6,9,22]","[3584,3848,4463,5731]","[""select"",""select"",""select"",""select""]","[""stimuli/c3_bas3.jpg"",""stimuli/c3_bas4.jpg"",""stimuli/c3_sub4.jpg"",""stimuli/c3_sub5.jpg""]",7885,/Users/martincz/GitHub/COGS119/group_fa24_suspicious_coincidence/analysis/../data/raw_data/p10j4aq34cj_1732485465895.csv
NA,NA,html-button-response,8,2.0.0,83176,p10j4aq34cj,shark,NA,NA,NA,NA,"<img src=""stimuli/c1_sub1.jpg"" style=""width:200px;height:200px;""> 
              <p>Here is a zom. Can you give Mr. Frog all the other zoms?</p>
              <p>Click on all of the zoms below. If you change your mind, you can unselect any image.</p>
              <p>Click the Submit button when you are done selecting all the zoms.</p>",NA,1-item,vegetables,one-subordinate,"[""stimuli/c1_sub4.jpg"",""stimuli/c1_sub5.jpg"",""stimuli/c1_bas3.jpg"",""stimuli/c1_bas4.jpg""]","[4,6,12,22]","[1469,2290,2523,3161]","[""select"",""select"",""select"",""select""]","[""stimuli/c1_sub4.jpg"",""stimuli/c1_sub5.jpg"",""stimuli/c1_bas3.jpg"",""stimuli/c1_bas4.jpg""]",17372,/Users/martincz/GitHub/COGS119/group_fa24_suspicious_coincidence/analysis/../data/raw_data/p10j4aq34cj_1732485465895.csv
NA,NA,html-button-response,9,2.0.0,96881,p10j4aq34cj,shark,NA,NA,NA,NA,"<img src=""stimuli/c1_sup2.jpg"" style=""width:200px;height:200px; margin: 5px;""><img src=""stimuli/c1_sup1.jpg"" style=""width:200px;height:200px; margin: 5px;""><img src=""stimuli/c1_sub1.jpg"" style=""width:200px;height:200px; margin: 5px;""><p>Here are some sibs. Can you give Mr. Frog all the other sibs?</p>
                                 <p>Click on all of the sibs below. If you change your mind, you can unselect any image.</p>
                                 <p>Click the Submit button when you are done selecting all the sibs.</p>",NA,3-item,vegetables,superordinate,"[""stimuli/c1_sup4.jpg"",""stimuli/c1_sup6.jpg"",""stimuli/c1_bas4.jpg"",""stimuli/c1_sub4.jpg"",""stimuli/c1_sub5.jpg"",""stimuli/c1_bas3.jpg"",""stimuli/c1_sup3.jpg""]","[1,4,17,16,15,21,14]","[4864,5601,7345,7560,7786,8071,8401]","[""select"",""select"",""select"",""select"",""select"",""select"",""select""]","[""stimuli/c1_sup4.jpg"",""stimuli/c1_sup6.jpg"",""stimuli/c1_bas4.jpg"",""stimuli/c1_sub4.jpg"",""stimuli/c1_sub5.jpg"",""stimuli/c1_bas3.jpg"",""stimuli/c1_sup3.jpg""]",13702,/Users/martincz/GitHub/COGS119/group_fa24_suspicious_coincidence/analysis/../data/raw_data/p10j4aq34cj_1732485465895.csv
NA,NA,html-button-response,10,2.0.0,104261,p10j4aq34cj,shark,NA,NA,NA,NA,"<img src=""stimuli/c1_bas2.jpg"" style=""width:200px;height:200px; margin: 5px;""><img src=""stimuli/c1_sub1.jpg"" style=""width:200px;height:200px; margin: 5px;""><img src=""stimuli/c1_bas1.jpg"" style=""width:200px;height:200px; margin: 5px;""><p>Here are some rabs. Can you give Mr. Frog all the other rabs?</p>
                                 <p>Click on all of the rabs below. If you change your mind, you can unselect any image.</p>
                                 <p>Click the Submit button when you are done selecting all the rabs.</p>",NA,3-item,vegetables,basic,"[""stimuli/c1_sub4.jpg"",""stimuli/c1_sub5.jpg"",""stimuli/c1_bas3.jpg"",""stimuli/c1_bas4.jpg""]","[4,5,9,17]","[4159,4778,5221,6168]","[""select"",""select"",""select"",""select""]","[""stimuli/c1_sub4.jpg"",""stimuli/c1_sub5.jpg"",""stimuli/c1_bas3.jpg"",""stimuli/c1_bas4.jpg""]",7378,/Users/martincz/GitHub/COGS119/group_fa24_suspicious_coincidence/analysis/../data/raw_data/p10j4aq34cj_1732485465895.csv
NA,NA,html-button-response,11,2.0.0,112266,p10j4aq34cj,shark,NA,NA,NA,NA,"<img src=""stimuli/c1_sub2.jpg"" style=""width:200px;height:200px; margin: 5px;""><img src=""stimuli/c1_sub3.jpg"" style=""width:200px;height:200px; margin: 5px;""><img src=""stimuli/c1_sub1.jpg"" style=""width:200px;height:200px; margin: 5px;""><p>Here are some zoms. Can you give Mr. Frog all the other zoms?</p>
                                 <p>Click on all of the zoms below. If you change your mind, you can unselect any image.</p>
                                 <p>Click the Submit button when you are done selecting all the zoms.</p>",NA,3-item,vegetables,subordinate,"[""stimuli/c1_sub5.jpg"",""stimuli/c1_sub4.jpg""]","[13,17]","[3008,3687]","[""select"",""select""]","[""stimuli/c1_sub5.jpg"",""stimuli/c1_sub4.jpg""]",8002,/Users/martincz/GitHub/COGS119/group_fa24_suspicious_coincidence/analysis/../data/raw_data/p10j4aq34cj_1732485465895.csv
NA,NA,html-button-response,12,2.0.0,132148,p10j4aq34cj,shark,NA,NA,NA,NA,"<img src=""stimuli/c2_bas1.jpg"" style=""width:200px;height:200px; margin: 5px;""><img src=""stimuli/c2_bas2.jpg"" style=""width:200px;height:200px; margin: 5px;""><img src=""stimuli/c2_sub1.jpg"" style=""width:200px;height:200px; margin: 5px;""><p>Here are some tevs. Can you give Mr. Frog all the other tevs?</p>
                                 <p>Click on all of the tevs below. If you change your mind, you can unselect any image.</p>
                                 <p>Click the Submit button when you are done selecting all the tevs.</p>",NA,3-item,vehicles,basic,"[""stimuli/c2_bas3.jpg"",""stimuli/c2_sub4.jpg"",""stimuli/c2_bas4.jpg"",""stimuli/c2_sub4.jpg"",""stimuli/c2_sub4.jpg"",""stimuli/c2_sub4.jpg"",""stimuli/c2_sub4.jpg"",""stimuli/c2_sub4.jpg"",""stimuli/c3_sup5.jpg"",""stimuli/c3_sup5.jpg"",""stimuli/c2_sub4.jpg"",""stimuli/c2_sub5.jpg""]","[5,9,14,9,9,9,9,9,10,10,9,23]","[2356,3256,3942,5366,6925,9044,9734,11298,11664,12318,13199,17125]","[""select"",""select"",""select"",""unselect"",""select"",""unselect"",""select"",""unselect"",""select"",""unselect"",""select"",""select""]","[""stimuli/c2_bas3.jpg"",""stimuli/c2_bas4.jpg"",""stimuli/c2_sub4.jpg"",""stimuli/c2_sub5.jpg""]",19880,/Users/martincz/GitHub/COGS119/group_fa24_suspicious_coincidence/analysis/../data/raw_data/p10j4aq34cj_1732485465895.csv
NA,NA,html-button-response,13,2.0.0,136698,p10j4aq34cj,shark,NA,NA,NA,NA,"<img src=""stimuli/c2_sub2.jpg"" style=""width:200px;height:200px; margin: 5px;""><img src=""stimuli/c2_sub3.jpg"" style=""width:200px;height:200px; margin: 5px;""><img src=""stimuli/c2_sub1.jpg"" style=""width:200px;height:200px; margin: 5px;""><p>Here are some tobs. Can you give Mr. Frog all the other tobs?</p>
                                 <p>Click on all of the tobs below. If you change your mind, you can unselect any image.</p>
                                 <p>Click the Submit button when you are done selecting all the tobs.</p>",NA,3-item,vehicles,subordinate,"[""stimuli/c2_sub5.jpg"",""stimuli/c2_sub4.jpg""]","[22,6]","[2211,3923]","[""select"",""select""]","[""stimuli/c2_sub5.jpg"",""stimuli/c2_sub4.jpg""]",4547,/Users/martincz/GitHub/COGS119/group_fa24_suspicious_coincidence/analysis/../data/raw_data/p10j4aq34cj_1732485465895.csv
NA,NA,html-button-response,14,2.0.0,149886,p10j4aq34cj,shark,NA,NA,NA,NA,"<img src=""stimuli/c3_bas2.jpg"" style=""width:200px;height:200px; margin: 5px;""><img src=""stimuli/c3_sub1.jpg"" style=""width:200px;height:200px; margin: 5px;""><img src=""stimuli/c3_bas1.jpg"" style=""width:200px;height:200px; margin: 5px;""><p>Here are some rifs. Can you give Mr. Frog all the other rifs?</p>
                                 <p>Click on all of the rifs below. If you change your mind, you can unselect any image.</p>
                                 <p>Click the Submit button when you are done selecting all the rifs.</p>",NA,3-item,animals,basic,"[""stimuli/c3_bas3.jpg"",""stimuli/c3_bas3.jpg"",""stimuli/c3_bas3.jpg"",""stimuli/c3_bas3.jpg"",""stimuli/c3_bas3.jpg"",""stimuli/c3_sub4.jpg"",""stimuli/c3_sub5.jpg"",""stimuli/c3_bas4.jpg""]","[3,3,3,3,3,10,23,20]","[1877,2513,3496,4588,8920,9302,10603,11674]","[""select"",""unselect"",""select"",""unselect"",""select"",""select"",""select"",""select""]","[""stimuli/c3_bas3.jpg"",""stimuli/c3_sub4.jpg"",""stimuli/c3_sub5.jpg"",""stimuli/c3_bas4.jpg""]",13185,/Users/martincz/GitHub/COGS119/group_fa24_suspicious_coincidence/analysis/../data/raw_data/p10j4aq34cj_1732485465895.csv
NA,NA,html-button-response,15,2.0.0,170855,p10j4aq34cj,shark,NA,NA,NA,NA,"<img src=""stimuli/c3_sup1.jpg"" style=""width:200px;height:200px; margin: 5px;""><img src=""stimuli/c3_sup2.jpg"" style=""width:200px;height:200px; margin: 5px;""><img src=""stimuli/c3_sub1.jpg"" style=""width:200px;height:200px; margin: 5px;""><p>Here are some meps. Can you give Mr. Frog all the other meps?</p>
                                 <p>Click on all of the meps below. If you change your mind, you can unselect any image.</p>
                                 <p>Click the Submit button when you are done selecting all the meps.</p>",NA,3-item,animals,superordinate,"[""stimuli/c1_sup5.jpg"",""stimuli/c1_sup5.jpg"",""stimuli/c3_bas3.jpg"",""stimuli/c3_sub5.jpg"",""stimuli/c3_sup3.jpg"",""stimuli/c3_sup6.jpg"",""stimuli/c3_bas4.jpg"",""stimuli/c3_sub4.jpg"",""stimuli/c3_sup4.jpg"",""stimuli/c3_sup5.jpg""]","[16,16,3,2,1,6,11,22,18,15]","[5683,7033,10207,10497,12014,12338,14058,15035,15773,17730]","[""select"",""unselect"",""select"",""select"",""select"",""select"",""select"",""select"",""select"",""select""]","[""stimuli/c3_bas3.jpg"",""stimuli/c3_sub5.jpg"",""stimuli/c3_sup3.jpg"",""stimuli/c3_sup6.jpg"",""stimuli/c3_bas4.jpg"",""stimuli/c3_sub4.jpg"",""stimuli/c3_sup4.jpg"",""stimuli/c3_sup5.jpg""]",20967,/Users/martincz/GitHub/COGS119/group_fa24_suspicious_coincidence/analysis/../data/raw_data/p10j4aq34cj_1732485465895.csv
NA,NA,html-button-response,16,2.0.0,179000,p10j4aq34cj,shark,NA,NA,NA,NA,"<img src=""stimuli/c3_sub1.jpg"" style=""width:200px;height:200px; margin: 5px;""><img src=""stimuli/c3_sub3.jpg"" style=""width:200px;height:200px; margin: 5px;""><img src=""stimuli/c3_sub2.jpg"" style=""width:200px;height:200px; margin: 5px;""><p>Here are some feps. Can you give Mr. Frog all the other feps?</p>
                                 <p>Click on all of the feps below. If you change your mind, you can unselect any image.</p>
                                 <p>Click the Submit button when you are done selecting all the feps.</p>",NA,3-item,animals,subordinate,"[""stimuli/c3_sub4.jpg"",""stimuli/c3_sub5.jpg""]","[22,11]","[4636,5723]","[""select"",""select""]","[""stimuli/c3_sub4.jpg"",""stimuli/c3_sub5.jpg""]",8143,/Users/martincz/GitHub/COGS119/group_fa24_suspicious_coincidence/analysis/../data/raw_data/p10j4aq34cj_1732485465895.csv
NA,NA,html-button-response,17,2.0.0,197508,p10j4aq34cj,shark,NA,NA,NA,NA,"<img src=""stimuli/c2_sup1.jpg"" style=""width:200px;height:200px; margin: 5px;""><img src=""stimuli/c2_sub1.jpg"" style=""width:200px;height:200px; margin: 5px;""><img src=""stimuli/c2_sup2.jpg"" style=""width:200px;height:200px; margin: 5px;""><p>Here are some wugs. Can you give Mr. Frog all the other wugs?</p>
                                 <p>Click on all of the wugs below. If you change your mind, you can unselect any image.</p>
                                 <p>Click the Submit button when you are done selecting all the wugs.</p>",NA,3-item,vehicles,superordinate,"[""stimuli/c2_bas3.jpg"",""stimuli/c2_bas4.jpg"",""stimuli/c2_sub4.jpg"",""stimuli/c2_sup6.jpg"",""stimuli/c2_sub5.jpg""]","[13,12,17,11,2]","[9755,10169,11226,15202,16090]","[""select"",""select"",""select"",""select"",""select""]","[""stimuli/c2_bas3.jpg"",""stimuli/c2_bas4.jpg"",""stimuli/c2_sub4.jpg"",""stimuli/c2_sup6.jpg"",""stimuli/c2_sub5.jpg""]",18507,/Users/martincz/GitHub/COGS119/group_fa24_suspicious_coincidence/analysis/../data/raw_data/p10j4aq34cj_1732485465895.csv
NA,10506,html-keyboard-response,18,2.0.0,208016,p10j4aq34cj,shark,NA,NA,NA,NA,"
      <p>Thank you for playing! This was a big help for Mr. Frog!</p>
      <img src=""stimuli/mrfrog.png"" alt=""Mr. Frog"" style=""width:300px;height:300px;"">
      <p><i>Debrief</i>: In this experiment, we wanted to see how people learn subordinate word meanings (e.g., “dalmatian”) when</p>
      <p>superordinate (e.g., “animal”) and basic-level (e.g., “dog”) meanings can also be reasonable label referents.</p>
      <p>We thought that when presented with three subordinate exemplars (aka the trials with three images), a word will be generalized</p>
      <p>to the subordinate level more often than when presented with one subordinate exemplar (aka the trials with one image).</p>
      <p><b>*Please press any key to save data.*</b></p>
",NA,NA,NA,NA,NA,NA,NA,NA,NA,NA,/Users/martincz/GitHub/COGS119/group_fa24_suspicious_coincidence/analysis/../data/raw_data/p10j4aq34cj_1732485465895.csv
TRUE,1149,fullscreen,0,null,2154,p11mpfuj81s,gazelle,NA,NA,NA,NA,NA,NA,NA,NA,NA,NA,NA,NA,NA,NA,NA,/Users/martincz/GitHub/COGS119/group_fa24_suspicious_coincidence/analysis/../data/raw_data/p11mpfuj81s_1732224445905.csv
TRUE,NA,preload,1,2.0.0,2308,p11mpfuj81s,gazelle,FALSE,[],[],[],NA,NA,NA,NA,NA,NA,NA,NA,NA,NA,NA,/Users/martincz/GitHub/COGS119/group_fa24_suspicious_coincidence/analysis/../data/raw_data/p11mpfuj81s_1732224445905.csv
NA,1223,html-keyboard-response,2,2.0.0,3532,p11mpfuj81s,gazelle,NA,NA,NA,NA,Welcome to the experiment. Press any key to begin.,NA,NA,NA,NA,NA,NA,NA,NA,NA,NA,/Users/martincz/GitHub/COGS119/group_fa24_suspicious_coincidence/analysis/../data/raw_data/p11mpfuj81s_1732224445905.csv
NA,1850,survey-text,3,2.0.0,5386,p11mpfuj81s,gazelle,NA,NA,NA,NA,NA,"{""participant_id"":""gazelle""}",NA,NA,NA,NA,NA,NA,NA,NA,NA,/Users/martincz/GitHub/COGS119/group_fa24_suspicious_coincidence/analysis/../data/raw_data/p11mpfuj81s_1732224445905.csv
NA,121038,html-keyboard-response,4,2.0.0,126428,p11mpfuj81s,gazelle,NA,NA,NA,NA,"
  <p><b>This is Mr. Frog!</b></p>
  <img src=""stimuli/mrfrog.png"" alt=""Mr. Frog"" style=""width:300px;height:300px;"">
  <p>He speaks a different language and needs help finding the items he wants. Can you help Mr. Frog?</p>
  <p>Press any key to move to the next page.</p>
",NA,NA,NA,NA,NA,NA,NA,NA,NA,NA,/Users/martincz/GitHub/COGS119/group_fa24_suspicious_coincidence/analysis/../data/raw_data/p11mpfuj81s_1732224445905.csv
NA,10138,html-keyboard-response,5,2.0.0,136568,p11mpfuj81s,gazelle,NA,NA,NA,NA,"
  <img src=""stimuli/mrfrog.png"" alt=""Mr. Frog"" style=""width:300px;height:300px;"">
  <p>In each trial, you will be shown an image that will be labeled with a word in the language that Mr. Frog speaks. </p>
  <p>Your job will be to select all the items that you think matches what Mr. Frog is asking for. </p>
  <p>Press any key to begin.</p>
",NA,NA,NA,NA,NA,NA,NA,NA,NA,NA,/Users/martincz/GitHub/COGS119/group_fa24_suspicious_coincidence/analysis/../data/raw_data/p11mpfuj81s_1732224445905.csv
NA,NA,html-button-response,6,2.0.0,174554,p11mpfuj81s,gazelle,NA,NA,NA,NA,"<img src=""stimuli/c1_sub1.jpg"" style=""width:200px;height:200px;""> 
              <p>Here is a zom. Can you give Mr. Frog all the other zoms?</p>
              <p>Click on all of the zoms below. If you change your mind, you can unselect any image.</p>
              <p>Click the Submit button when you are done selecting all the zoms.</p>",NA,1-item,vegetables,one-subordinate,"[""stimuli/c1_sub4.jpg"",""stimuli/c1_sub5.jpg"",""stimuli/c1_bas3.jpg"",""stimuli/c1_bas4.jpg""]","[4,11,21,22]","[30366,31701,35865,36416]","[""select"",""select"",""select"",""select""]","[""stimuli/c1_sub4.jpg"",""stimuli/c1_sub5.jpg"",""stimuli/c1_bas3.jpg"",""stimuli/c1_bas4.jpg""]",37983,/Users/martincz/GitHub/COGS119/group_fa24_suspicious_coincidence/analysis/../data/raw_data/p11mpfuj81s_1732224445905.csv
NA,NA,html-button-response,7,2.0.0,488892,p11mpfuj81s,gazelle,NA,NA,NA,NA,"<img src=""stimuli/c2_sub1.jpg"" style=""width:200px;height:200px;""> 
              <p>Here is a mep. Can you give Mr. Frog all the other meps?</p>
              <p>Click on all of the meps below. If you change your mind, you can unselect any image.</p>
              <p>Click the Submit button when you are done selecting all the meps.</p>",NA,1-item,vehicles,one-subordinate,"[""stimuli/c2_sub4.jpg"",""stimuli/c2_sub5.jpg""]","[6,20]","[309629,312077]","[""select"",""select""]","[""stimuli/c2_sub4.jpg"",""stimuli/c2_sub5.jpg""]",314328,/Users/martincz/GitHub/COGS119/group_fa24_suspicious_coincidence/analysis/../data/raw_data/p11mpfuj81s_1732224445905.csv
NA,NA,html-button-response,8,2.0.0,497707,p11mpfuj81s,gazelle,NA,NA,NA,NA,"<img src=""stimuli/c3_sub1.jpg"" style=""width:200px;height:200px;""> 
              <p>Here is a rif. Can you give Mr. Frog all the other rifs?</p>
              <p>Click on all of the rifs below. If you change your mind, you can unselect any image.</p>
              <p>Click the Submit button when you are done selecting all the rifs.</p>",NA,1-item,animals,one-subordinate,"[""stimuli/c3_bas3.jpg"",""stimuli/c3_sub4.jpg"",""stimuli/c3_bas3.jpg"",""stimuli/c3_sub5.jpg""]","[10,14,10,22]","[2729,3745,4363,6145]","[""select"",""select"",""unselect"",""select""]","[""stimuli/c3_sub4.jpg"",""stimuli/c3_sub5.jpg""]",8812,/Users/martincz/GitHub/COGS119/group_fa24_suspicious_coincidence/analysis/../data/raw_data/p11mpfuj81s_1732224445905.csv
NA,NA,html-button-response,9,2.0.0,509492,p11mpfuj81s,gazelle,NA,NA,NA,NA,"<img src=""stimuli/c1_sub1.jpg"" style=""width:200px;height:200px; margin: 5px;""><img src=""stimuli/c1_sup1.jpg"" style=""width:200px;height:200px; margin: 5px;""><img src=""stimuli/c1_sup2.jpg"" style=""width:200px;height:200px; margin: 5px;""><p>Here are some sibs. Can you give Mr. Frog all the other sibs?</p>
                                 <p>Click on all of the sibs below. If you change your mind, you can unselect any image.</p>
                                 <p>Click the Submit button when you are done selecting all the sibs.</p>",NA,3-item,vegetables,superordinate,"[""stimuli/c1_sup6.jpg"",""stimuli/c1_sup5.jpg"",""stimuli/c1_bas3.jpg"",""stimuli/c1_sup4.jpg"",""stimuli/c1_sup3.jpg"",""stimuli/c1_sub4.jpg"",""stimuli/c1_sub5.jpg"",""stimuli/c1_bas4.jpg""]","[0,3,9,10,11,17,13,21]","[4966,5564,6047,6563,7114,7497,8996,9863]","[""select"",""select"",""select"",""select"",""select"",""select"",""select"",""select""]","[""stimuli/c1_sup6.jpg"",""stimuli/c1_sup5.jpg"",""stimuli/c1_bas3.jpg"",""stimuli/c1_sup4.jpg"",""stimuli/c1_sup3.jpg"",""stimuli/c1_sub4.jpg"",""stimuli/c1_sub5.jpg"",""stimuli/c1_bas4.jpg""]",11781,/Users/martincz/GitHub/COGS119/group_fa24_suspicious_coincidence/analysis/../data/raw_data/p11mpfuj81s_1732224445905.csv
NA,NA,html-button-response,10,2.0.0,709377,p11mpfuj81s,gazelle,NA,NA,NA,NA,"<img src=""stimuli/c2_sup1.jpg"" style=""width:200px;height:200px; margin: 5px;""><img src=""stimuli/c2_sub1.jpg"" style=""width:200px;height:200px; margin: 5px;""><img src=""stimuli/c2_sup2.jpg"" style=""width:200px;height:200px; margin: 5px;""><p>Here are some tobs. Can you give Mr. Frog all the other tobs?</p>
                                 <p>Click on all of the tobs below. If you change your mind, you can unselect any image.</p>
                                 <p>Click the Submit button when you are done selecting all the tobs.</p>",NA,3-item,vehicles,superordinate,"[""stimuli/c2_sub5.jpg"",""stimuli/c2_sub4.jpg"",""stimuli/c2_bas4.jpg"",""stimuli/c2_sup3.jpg"",""stimuli/c2_bas3.jpg"",""stimuli/c2_sup5.jpg"",""stimuli/c2_sup6.jpg"",""stimuli/c2_sup4.jpg""]","[7,12,14,20,21,17,11,10]","[194278,194695,195345,196045,196612,197478,197928,198495]","[""select"",""select"",""select"",""select"",""select"",""select"",""select"",""select""]","[""stimuli/c2_sub5.jpg"",""stimuli/c2_sub4.jpg"",""stimuli/c2_bas4.jpg"",""stimuli/c2_sup3.jpg"",""stimuli/c2_bas3.jpg"",""stimuli/c2_sup5.jpg"",""stimuli/c2_sup6.jpg"",""stimuli/c2_sup4.jpg""]",199879,/Users/martincz/GitHub/COGS119/group_fa24_suspicious_coincidence/analysis/../data/raw_data/p11mpfuj81s_1732224445905.csv
NA,NA,html-button-response,11,2.0.0,715877,p11mpfuj81s,gazelle,NA,NA,NA,NA,"<img src=""stimuli/c1_bas1.jpg"" style=""width:200px;height:200px; margin: 5px;""><img src=""stimuli/c1_bas2.jpg"" style=""width:200px;height:200px; margin: 5px;""><img src=""stimuli/c1_sub1.jpg"" style=""width:200px;height:200px; margin: 5px;""><p>Here are some wugs. Can you give Mr. Frog all the other wugs?</p>
                                 <p>Click on all of the wugs below. If you change your mind, you can unselect any image.</p>
                                 <p>Click the Submit button when you are done selecting all the wugs.</p>",NA,3-item,vegetables,basic,"[""stimuli/c1_bas4.jpg"",""stimuli/c1_sub5.jpg"",""stimuli/c1_sub4.jpg"",""stimuli/c1_bas3.jpg""]","[6,14,20,19]","[2264,2830,3196,3564]","[""select"",""select"",""select"",""select""]","[""stimuli/c1_bas4.jpg"",""stimuli/c1_sub5.jpg"",""stimuli/c1_sub4.jpg"",""stimuli/c1_bas3.jpg""]",6497,/Users/martincz/GitHub/COGS119/group_fa24_suspicious_coincidence/analysis/../data/raw_data/p11mpfuj81s_1732224445905.csv
NA,NA,html-button-response,12,2.0.0,722276,p11mpfuj81s,gazelle,NA,NA,NA,NA,"<img src=""stimuli/c2_sub1.jpg"" style=""width:200px;height:200px; margin: 5px;""><img src=""stimuli/c2_bas1.jpg"" style=""width:200px;height:200px; margin: 5px;""><img src=""stimuli/c2_bas2.jpg"" style=""width:200px;height:200px; margin: 5px;""><p>Here are some tevs. Can you give Mr. Frog all the other tevs?</p>
                                 <p>Click on all of the tevs below. If you change your mind, you can unselect any image.</p>
                                 <p>Click the Submit button when you are done selecting all the tevs.</p>",NA,3-item,vehicles,basic,"[""stimuli/c2_sub5.jpg"",""stimuli/c2_bas3.jpg"",""stimuli/c2_sub4.jpg"",""stimuli/c2_bas4.jpg""]","[9,15,5,12]","[2364,2830,3980,4780]","[""select"",""select"",""select"",""select""]","[""stimuli/c2_sub5.jpg"",""stimuli/c2_bas3.jpg"",""stimuli/c2_sub4.jpg"",""stimuli/c2_bas4.jpg""]",6397,/Users/martincz/GitHub/COGS119/group_fa24_suspicious_coincidence/analysis/../data/raw_data/p11mpfuj81s_1732224445905.csv
NA,NA,html-button-response,13,2.0.0,734094,p11mpfuj81s,gazelle,NA,NA,NA,NA,"<img src=""stimuli/c3_sup2.jpg"" style=""width:200px;height:200px; margin: 5px;""><img src=""stimuli/c3_sup1.jpg"" style=""width:200px;height:200px; margin: 5px;""><img src=""stimuli/c3_sub1.jpg"" style=""width:200px;height:200px; margin: 5px;""><p>Here are some rabs. Can you give Mr. Frog all the other rabs?</p>
                                 <p>Click on all of the rabs below. If you change your mind, you can unselect any image.</p>
                                 <p>Click the Submit button when you are done selecting all the rabs.</p>",NA,3-item,animals,superordinate,"[""stimuli/c3_sup3.jpg"",""stimuli/c3_sup6.jpg"",""stimuli/c3_sub4.jpg"",""stimuli/c3_bas4.jpg"",""stimuli/c3_sup5.jpg"",""stimuli/c3_sub5.jpg"",""stimuli/c3_sup4.jpg"",""stimuli/c3_bas3.jpg""]","[0,4,10,11,17,22,20,8]","[3848,4448,5081,5448,6065,7015,7715,8865]","[""select"",""select"",""select"",""select"",""select"",""select"",""select"",""select""]","[""stimuli/c3_sup3.jpg"",""stimuli/c3_sup6.jpg"",""stimuli/c3_sub4.jpg"",""stimuli/c3_bas4.jpg"",""stimuli/c3_sup5.jpg"",""stimuli/c3_sub5.jpg"",""stimuli/c3_sup4.jpg"",""stimuli/c3_bas3.jpg""]",11815,/Users/martincz/GitHub/COGS119/group_fa24_suspicious_coincidence/analysis/../data/raw_data/p11mpfuj81s_1732224445905.csv
NA,NA,html-button-response,14,2.0.0,741061,p11mpfuj81s,gazelle,NA,NA,NA,NA,"<img src=""stimuli/c1_sub3.jpg"" style=""width:200px;height:200px; margin: 5px;""><img src=""stimuli/c1_sub2.jpg"" style=""width:200px;height:200px; margin: 5px;""><img src=""stimuli/c1_sub1.jpg"" style=""width:200px;height:200px; margin: 5px;""><p>Here are some zoms. Can you give Mr. Frog all the other zoms?</p>
                                 <p>Click on all of the zoms below. If you change your mind, you can unselect any image.</p>
                                 <p>Click the Submit button when you are done selecting all the zoms.</p>",NA,3-item,vegetables,subordinate,"[""stimuli/c1_sub4.jpg"",""stimuli/c1_sub5.jpg""]","[17,13]","[5013,6064]","[""select"",""select""]","[""stimuli/c1_sub4.jpg"",""stimuli/c1_sub5.jpg""]",6965,/Users/martincz/GitHub/COGS119/group_fa24_suspicious_coincidence/analysis/../data/raw_data/p11mpfuj81s_1732224445905.csv
NA,NA,html-button-response,15,2.0.0,745342,p11mpfuj81s,gazelle,NA,NA,NA,NA,"<img src=""stimuli/c2_sub2.jpg"" style=""width:200px;height:200px; margin: 5px;""><img src=""stimuli/c2_sub1.jpg"" style=""width:200px;height:200px; margin: 5px;""><img src=""stimuli/c2_sub3.jpg"" style=""width:200px;height:200px; margin: 5px;""><p>Here are some meps. Can you give Mr. Frog all the other meps?</p>
                                 <p>Click on all of the meps below. If you change your mind, you can unselect any image.</p>
                                 <p>Click the Submit button when you are done selecting all the meps.</p>",NA,3-item,vehicles,subordinate,"[""stimuli/c2_sub4.jpg""]",[20],[3530],"[""select""]","[""stimuli/c2_sub4.jpg""]",4279,/Users/martincz/GitHub/COGS119/group_fa24_suspicious_coincidence/analysis/../data/raw_data/p11mpfuj81s_1732224445905.csv
NA,NA,html-button-response,16,2.0.0,852496,p11mpfuj81s,gazelle,NA,NA,NA,NA,"<img src=""stimuli/c3_bas1.jpg"" style=""width:200px;height:200px; margin: 5px;""><img src=""stimuli/c3_sub1.jpg"" style=""width:200px;height:200px; margin: 5px;""><img src=""stimuli/c3_bas2.jpg"" style=""width:200px;height:200px; margin: 5px;""><p>Here are some feps. Can you give Mr. Frog all the other feps?</p>
                                 <p>Click on all of the feps below. If you change your mind, you can unselect any image.</p>
                                 <p>Click the Submit button when you are done selecting all the feps.</p>",NA,3-item,animals,basic,"[""stimuli/c3_bas4.jpg"",""stimuli/c3_sub5.jpg"",""stimuli/c3_sub4.jpg"",""stimuli/c3_bas3.jpg""]","[5,11,14,18]","[103901,104501,105850,106467]","[""select"",""select"",""select"",""select""]","[""stimuli/c3_bas4.jpg"",""stimuli/c3_sub5.jpg"",""stimuli/c3_sub4.jpg"",""stimuli/c3_bas3.jpg""]",107150,/Users/martincz/GitHub/COGS119/group_fa24_suspicious_coincidence/analysis/../data/raw_data/p11mpfuj81s_1732224445905.csv
NA,NA,html-button-response,17,2.0.0,856846,p11mpfuj81s,gazelle,NA,NA,NA,NA,"<img src=""stimuli/c3_sub2.jpg"" style=""width:200px;height:200px; margin: 5px;""><img src=""stimuli/c3_sub1.jpg"" style=""width:200px;height:200px; margin: 5px;""><img src=""stimuli/c3_sub3.jpg"" style=""width:200px;height:200px; margin: 5px;""><p>Here are some rifs. Can you give Mr. Frog all the other rifs?</p>
                                 <p>Click on all of the rifs below. If you change your mind, you can unselect any image.</p>
                                 <p>Click the Submit button when you are done selecting all the rifs.</p>",NA,3-item,animals,subordinate,"[""stimuli/c3_sub5.jpg"",""stimuli/c3_sub4.jpg""]","[3,23]","[1862,3513]","[""select"",""select""]","[""stimuli/c3_sub5.jpg"",""stimuli/c3_sub4.jpg""]",4346,/Users/martincz/GitHub/COGS119/group_fa24_suspicious_coincidence/analysis/../data/raw_data/p11mpfuj81s_1732224445905.csv
NA,27994,html-keyboard-response,18,2.0.0,884847,p11mpfuj81s,gazelle,NA,NA,NA,NA,"
      <p>Thank you for playing! This was a big help for Mr. Frog!</p>
      <img src=""stimuli/mrfrog.png"" alt=""Mr. Frog"" style=""width:300px;height:300px;"">
      <p><i>Debrief</i>: In this experiment, we wanted to see how people learn subordinate word meanings (e.g., “dalmatian”) when</p>
      <p>superordinate (e.g., “animal”) and basic-level (e.g., “dog”) meanings can also be reasonable label referents.</p>
      <p>We thought that when presented with three subordinate exemplars (aka the trials with three images), a word will be generalized</p>
      <p>to the subordinate level more often than when presented with one subordinate exemplar (aka the trials with one image).</p>
      <p><b>*Please press any key to save data.*</b></p>
",NA,NA,NA,NA,NA,NA,NA,NA,NA,NA,/Users/martincz/GitHub/COGS119/group_fa24_suspicious_coincidence/analysis/../data/raw_data/p11mpfuj81s_1732224445905.csv
TRUE,1290,fullscreen,0,null,2295,p4jsogdq5ca,seal,NA,NA,NA,NA,NA,NA,NA,NA,NA,NA,NA,NA,NA,NA,NA,/Users/martincz/GitHub/COGS119/group_fa24_suspicious_coincidence/analysis/../data/raw_data/p4jsogdq5ca_1732223578771.csv
TRUE,NA,preload,1,2.0.0,2607,p4jsogdq5ca,seal,FALSE,[],[],[],NA,NA,NA,NA,NA,NA,NA,NA,NA,NA,NA,/Users/martincz/GitHub/COGS119/group_fa24_suspicious_coincidence/analysis/../data/raw_data/p4jsogdq5ca_1732223578771.csv
NA,914,html-keyboard-response,2,2.0.0,3522,p4jsogdq5ca,seal,NA,NA,NA,NA,Welcome to the experiment. Press any key to begin.,NA,NA,NA,NA,NA,NA,NA,NA,NA,NA,/Users/martincz/GitHub/COGS119/group_fa24_suspicious_coincidence/analysis/../data/raw_data/p4jsogdq5ca_1732223578771.csv
NA,2538,survey-text,3,2.0.0,6063,p4jsogdq5ca,seal,NA,NA,NA,NA,NA,"{""participant_id"":""seal""}",NA,NA,NA,NA,NA,NA,NA,NA,NA,/Users/martincz/GitHub/COGS119/group_fa24_suspicious_coincidence/analysis/../data/raw_data/p4jsogdq5ca_1732223578771.csv
NA,4608,html-keyboard-response,4,2.0.0,10672,p4jsogdq5ca,seal,NA,NA,NA,NA,"
  <p><b>This is Mr. Frog!</b></p>
  <img src=""stimuli/mrfrog.png"" alt=""Mr. Frog"" style=""width:300px;height:300px;"">
  <p>He speaks a different language and needs help finding the items he wants. Can you help Mr. Frog?</p>
  <p>Press any key to move to the next page.</p>
",NA,NA,NA,NA,NA,NA,NA,NA,NA,NA,/Users/martincz/GitHub/COGS119/group_fa24_suspicious_coincidence/analysis/../data/raw_data/p4jsogdq5ca_1732223578771.csv
NA,4588,html-keyboard-response,5,2.0.0,15261,p4jsogdq5ca,seal,NA,NA,NA,NA,"
  <img src=""stimuli/mrfrog.png"" alt=""Mr. Frog"" style=""width:300px;height:300px;"">
  <p>In each trial, you will be shown an image that will be labeled with a word in the language that Mr. Frog speaks. </p>
  <p>Your job will be to select all the items that you think matches what Mr. Frog is asking for. </p>
  <p>Press any key to begin.</p>
",NA,NA,NA,NA,NA,NA,NA,NA,NA,NA,/Users/martincz/GitHub/COGS119/group_fa24_suspicious_coincidence/analysis/../data/raw_data/p4jsogdq5ca_1732223578771.csv
NA,NA,html-button-response,6,2.0.0,35076,p4jsogdq5ca,seal,NA,NA,NA,NA,"<img src=""stimuli/c1_sub1.jpg"" style=""width:200px;height:200px;""> 
              <p>Here is a zom. Can you give Mr. Frog all the other zoms?</p>
              <p>Click on all of the zoms below. If you change your mind, you can unselect any image.</p>
              <p>Click the Submit button when you are done selecting all the zoms.</p>",NA,1-item,vegetables,one-subordinate,"[""stimuli/c1_sub4.jpg"",""stimuli/c1_sub5.jpg"",""stimuli/c1_bas4.jpg"",""stimuli/c1_bas3.jpg""]","[5,8,17,11]","[8962,9978,12285,12868]","[""select"",""select"",""select"",""select""]","[""stimuli/c1_sub4.jpg"",""stimuli/c1_sub5.jpg"",""stimuli/c1_bas4.jpg"",""stimuli/c1_bas3.jpg""]",19812,/Users/martincz/GitHub/COGS119/group_fa24_suspicious_coincidence/analysis/../data/raw_data/p4jsogdq5ca_1732223578771.csv
NA,NA,html-button-response,7,2.0.0,47152,p4jsogdq5ca,seal,NA,NA,NA,NA,"<img src=""stimuli/c3_sub1.jpg"" style=""width:200px;height:200px;""> 
              <p>Here is a fep. Can you give Mr. Frog all the other feps?</p>
              <p>Click on all of the feps below. If you change your mind, you can unselect any image.</p>
              <p>Click the Submit button when you are done selecting all the feps.</p>",NA,1-item,animals,one-subordinate,"[""stimuli/c3_sub5.jpg"",""stimuli/c3_sub4.jpg""]","[7,9]","[3911,6597]","[""select"",""select""]","[""stimuli/c3_sub5.jpg"",""stimuli/c3_sub4.jpg""]",12074,/Users/martincz/GitHub/COGS119/group_fa24_suspicious_coincidence/analysis/../data/raw_data/p4jsogdq5ca_1732223578771.csv
NA,NA,html-button-response,8,2.0.0,53790,p4jsogdq5ca,seal,NA,NA,NA,NA,"<img src=""stimuli/c2_sub1.jpg"" style=""width:200px;height:200px;""> 
              <p>Here is a mep. Can you give Mr. Frog all the other meps?</p>
              <p>Click on all of the meps below. If you change your mind, you can unselect any image.</p>
              <p>Click the Submit button when you are done selecting all the meps.</p>",NA,1-item,vehicles,one-subordinate,"[""stimuli/c2_sub4.jpg"",""stimuli/c2_sub5.jpg""]","[0,19]","[3605,5124]","[""select"",""select""]","[""stimuli/c2_sub4.jpg"",""stimuli/c2_sub5.jpg""]",6635,/Users/martincz/GitHub/COGS119/group_fa24_suspicious_coincidence/analysis/../data/raw_data/p4jsogdq5ca_1732223578771.csv
NA,NA,html-button-response,9,2.0.0,64192,p4jsogdq5ca,seal,NA,NA,NA,NA,"<img src=""stimuli/c2_bas1.jpg"" style=""width:200px;height:200px; margin: 5px;""><img src=""stimuli/c2_sub1.jpg"" style=""width:200px;height:200px; margin: 5px;""><img src=""stimuli/c2_bas2.jpg"" style=""width:200px;height:200px; margin: 5px;""><p>Here are some wugs. Can you give Mr. Frog all the other wugs?</p>
                                 <p>Click on all of the wugs below. If you change your mind, you can unselect any image.</p>
                                 <p>Click the Submit button when you are done selecting all the wugs.</p>",NA,3-item,vehicles,basic,"[""stimuli/c2_sub4.jpg"",""stimuli/c2_sub5.jpg"",""stimuli/c2_bas4.jpg"",""stimuli/c2_bas3.jpg""]","[19,18,0,7]","[3264,3833,6006,8779]","[""select"",""select"",""select"",""select""]","[""stimuli/c2_sub4.jpg"",""stimuli/c2_sub5.jpg"",""stimuli/c2_bas4.jpg"",""stimuli/c2_bas3.jpg""]",10399,/Users/martincz/GitHub/COGS119/group_fa24_suspicious_coincidence/analysis/../data/raw_data/p4jsogdq5ca_1732223578771.csv
NA,NA,html-button-response,10,2.0.0,73043,p4jsogdq5ca,seal,NA,NA,NA,NA,"<img src=""stimuli/c3_bas1.jpg"" style=""width:200px;height:200px; margin: 5px;""><img src=""stimuli/c3_bas2.jpg"" style=""width:200px;height:200px; margin: 5px;""><img src=""stimuli/c3_sub1.jpg"" style=""width:200px;height:200px; margin: 5px;""><p>Here are some tevs. Can you give Mr. Frog all the other tevs?</p>
                                 <p>Click on all of the tevs below. If you change your mind, you can unselect any image.</p>
                                 <p>Click the Submit button when you are done selecting all the tevs.</p>",NA,3-item,animals,basic,"[""stimuli/c3_sub5.jpg"",""stimuli/c3_bas4.jpg"",""stimuli/c3_bas3.jpg"",""stimuli/c3_sub4.jpg""]","[1,18,10,23]","[3027,4568,5395,6225]","[""select"",""select"",""select"",""select""]","[""stimuli/c3_sub5.jpg"",""stimuli/c3_bas4.jpg"",""stimuli/c3_bas3.jpg"",""stimuli/c3_sub4.jpg""]",8849,/Users/martincz/GitHub/COGS119/group_fa24_suspicious_coincidence/analysis/../data/raw_data/p4jsogdq5ca_1732223578771.csv
NA,NA,html-button-response,11,2.0.0,80210,p4jsogdq5ca,seal,NA,NA,NA,NA,"<img src=""stimuli/c3_sub2.jpg"" style=""width:200px;height:200px; margin: 5px;""><img src=""stimuli/c3_sub1.jpg"" style=""width:200px;height:200px; margin: 5px;""><img src=""stimuli/c3_sub3.jpg"" style=""width:200px;height:200px; margin: 5px;""><p>Here are some feps. Can you give Mr. Frog all the other feps?</p>
                                 <p>Click on all of the feps below. If you change your mind, you can unselect any image.</p>
                                 <p>Click the Submit button when you are done selecting all the feps.</p>",NA,3-item,animals,subordinate,"[""stimuli/c3_sub5.jpg"",""stimuli/c3_sub4.jpg""]","[6,10]","[4579,5822]","[""select"",""select""]","[""stimuli/c3_sub5.jpg"",""stimuli/c3_sub4.jpg""]",7164,/Users/martincz/GitHub/COGS119/group_fa24_suspicious_coincidence/analysis/../data/raw_data/p4jsogdq5ca_1732223578771.csv
NA,NA,html-button-response,12,2.0.0,84671,p4jsogdq5ca,seal,NA,NA,NA,NA,"<img src=""stimuli/c1_sub2.jpg"" style=""width:200px;height:200px; margin: 5px;""><img src=""stimuli/c1_sub1.jpg"" style=""width:200px;height:200px; margin: 5px;""><img src=""stimuli/c1_sub3.jpg"" style=""width:200px;height:200px; margin: 5px;""><p>Here are some zoms. Can you give Mr. Frog all the other zoms?</p>
                                 <p>Click on all of the zoms below. If you change your mind, you can unselect any image.</p>
                                 <p>Click the Submit button when you are done selecting all the zoms.</p>",NA,3-item,vegetables,subordinate,"[""stimuli/c1_sub5.jpg"",""stimuli/c1_sub4.jpg""]","[13,18]","[1484,2186]","[""select"",""select""]","[""stimuli/c1_sub5.jpg"",""stimuli/c1_sub4.jpg""]",4459,/Users/martincz/GitHub/COGS119/group_fa24_suspicious_coincidence/analysis/../data/raw_data/p4jsogdq5ca_1732223578771.csv
NA,NA,html-button-response,13,2.0.0,97932,p4jsogdq5ca,seal,NA,NA,NA,NA,"<img src=""stimuli/c3_sup1.jpg"" style=""width:200px;height:200px; margin: 5px;""><img src=""stimuli/c3_sup2.jpg"" style=""width:200px;height:200px; margin: 5px;""><img src=""stimuli/c3_sub1.jpg"" style=""width:200px;height:200px; margin: 5px;""><p>Here are some sibs. Can you give Mr. Frog all the other sibs?</p>
                                 <p>Click on all of the sibs below. If you change your mind, you can unselect any image.</p>
                                 <p>Click the Submit button when you are done selecting all the sibs.</p>",NA,3-item,animals,superordinate,"[""stimuli/c3_sup4.jpg"",""stimuli/c3_sup5.jpg"",""stimuli/c3_bas3.jpg"",""stimuli/c3_sup3.jpg"",""stimuli/c3_sup6.jpg"",""stimuli/c3_bas4.jpg"",""stimuli/c3_sub5.jpg"",""stimuli/c3_sub4.jpg""]","[10,1,0,7,4,23,19,8]","[4646,5356,5860,6963,7979,8877,9675,11209]","[""select"",""select"",""select"",""select"",""select"",""select"",""select"",""select""]","[""stimuli/c3_sup4.jpg"",""stimuli/c3_sup5.jpg"",""stimuli/c3_bas3.jpg"",""stimuli/c3_sup3.jpg"",""stimuli/c3_sup6.jpg"",""stimuli/c3_bas4.jpg"",""stimuli/c3_sub5.jpg"",""stimuli/c3_sub4.jpg""]",13259,/Users/martincz/GitHub/COGS119/group_fa24_suspicious_coincidence/analysis/../data/raw_data/p4jsogdq5ca_1732223578771.csv
NA,NA,html-button-response,14,2.0.0,106032,p4jsogdq5ca,seal,NA,NA,NA,NA,"<img src=""stimuli/c1_sub1.jpg"" style=""width:200px;height:200px; margin: 5px;""><img src=""stimuli/c1_sup2.jpg"" style=""width:200px;height:200px; margin: 5px;""><img src=""stimuli/c1_sup1.jpg"" style=""width:200px;height:200px; margin: 5px;""><p>Here are some rifs. Can you give Mr. Frog all the other rifs?</p>
                                 <p>Click on all of the rifs below. If you change your mind, you can unselect any image.</p>
                                 <p>Click the Submit button when you are done selecting all the rifs.</p>",NA,3-item,vegetables,superordinate,"[""stimuli/c1_sup4.jpg"",""stimuli/c1_sup3.jpg"",""stimuli/c1_sub4.jpg"",""stimuli/c1_sub5.jpg"",""stimuli/c1_sup6.jpg"",""stimuli/c1_bas3.jpg"",""stimuli/c1_bas4.jpg""]","[0,4,11,17,23,22,19]","[3259,4135,4743,5185,5649,6125,7035]","[""select"",""select"",""select"",""select"",""select"",""select"",""select""]","[""stimuli/c1_sup4.jpg"",""stimuli/c1_sup3.jpg"",""stimuli/c1_sub4.jpg"",""stimuli/c1_sub5.jpg"",""stimuli/c1_sup6.jpg"",""stimuli/c1_bas3.jpg"",""stimuli/c1_bas4.jpg""]",8097,/Users/martincz/GitHub/COGS119/group_fa24_suspicious_coincidence/analysis/../data/raw_data/p4jsogdq5ca_1732223578771.csv
NA,NA,html-button-response,15,2.0.0,118826,p4jsogdq5ca,seal,NA,NA,NA,NA,"<img src=""stimuli/c2_sup1.jpg"" style=""width:200px;height:200px; margin: 5px;""><img src=""stimuli/c2_sup2.jpg"" style=""width:200px;height:200px; margin: 5px;""><img src=""stimuli/c2_sub1.jpg"" style=""width:200px;height:200px; margin: 5px;""><p>Here are some rabs. Can you give Mr. Frog all the other rabs?</p>
                                 <p>Click on all of the rabs below. If you change your mind, you can unselect any image.</p>
                                 <p>Click the Submit button when you are done selecting all the rabs.</p>",NA,3-item,vehicles,superordinate,"[""stimuli/c2_bas3.jpg"",""stimuli/c2_sub4.jpg"",""stimuli/c2_sup3.jpg"",""stimuli/c2_sub5.jpg"",""stimuli/c2_bas4.jpg"",""stimuli/c2_sup6.jpg"",""stimuli/c2_sup5.jpg""]","[8,0,3,5,9,13,23]","[4838,6163,7102,8807,9380,10623,11746]","[""select"",""select"",""select"",""select"",""select"",""select"",""select""]","[""stimuli/c2_bas3.jpg"",""stimuli/c2_sub4.jpg"",""stimuli/c2_sup3.jpg"",""stimuli/c2_sub5.jpg"",""stimuli/c2_bas4.jpg"",""stimuli/c2_sup6.jpg"",""stimuli/c2_sup5.jpg""]",12792,/Users/martincz/GitHub/COGS119/group_fa24_suspicious_coincidence/analysis/../data/raw_data/p4jsogdq5ca_1732223578771.csv
NA,NA,html-button-response,16,2.0.0,124398,p4jsogdq5ca,seal,NA,NA,NA,NA,"<img src=""stimuli/c1_bas2.jpg"" style=""width:200px;height:200px; margin: 5px;""><img src=""stimuli/c1_sub1.jpg"" style=""width:200px;height:200px; margin: 5px;""><img src=""stimuli/c1_bas1.jpg"" style=""width:200px;height:200px; margin: 5px;""><p>Here are some tobs. Can you give Mr. Frog all the other tobs?</p>
                                 <p>Click on all of the tobs below. If you change your mind, you can unselect any image.</p>
                                 <p>Click the Submit button when you are done selecting all the tobs.</p>",NA,3-item,vegetables,basic,"[""stimuli/c1_sub5.jpg"",""stimuli/c1_bas4.jpg"",""stimuli/c1_bas3.jpg"",""stimuli/c1_sub4.jpg""]","[2,4,13,5]","[1594,2151,2795,3709]","[""select"",""select"",""select"",""select""]","[""stimuli/c1_sub5.jpg"",""stimuli/c1_bas4.jpg"",""stimuli/c1_bas3.jpg"",""stimuli/c1_sub4.jpg""]",5569,/Users/martincz/GitHub/COGS119/group_fa24_suspicious_coincidence/analysis/../data/raw_data/p4jsogdq5ca_1732223578771.csv
NA,NA,html-button-response,17,2.0.0,131854,p4jsogdq5ca,seal,NA,NA,NA,NA,"<img src=""stimuli/c2_sub3.jpg"" style=""width:200px;height:200px; margin: 5px;""><img src=""stimuli/c2_sub1.jpg"" style=""width:200px;height:200px; margin: 5px;""><img src=""stimuli/c2_sub2.jpg"" style=""width:200px;height:200px; margin: 5px;""><p>Here are some meps. Can you give Mr. Frog all the other meps?</p>
                                 <p>Click on all of the meps below. If you change your mind, you can unselect any image.</p>
                                 <p>Click the Submit button when you are done selecting all the meps.</p>",NA,3-item,vehicles,subordinate,"[""stimuli/c2_sub4.jpg"",""stimuli/c2_sub5.jpg""]","[15,19]","[2640,3292]","[""select"",""select""]","[""stimuli/c2_sub4.jpg"",""stimuli/c2_sub5.jpg""]",7454,/Users/martincz/GitHub/COGS119/group_fa24_suspicious_coincidence/analysis/../data/raw_data/p4jsogdq5ca_1732223578771.csv
NA,9896,html-keyboard-response,18,2.0.0,141750,p4jsogdq5ca,seal,NA,NA,NA,NA,"
      <p>Thank you for playing! This was a big help for Mr. Frog!</p>
      <img src=""stimuli/mrfrog.png"" alt=""Mr. Frog"" style=""width:300px;height:300px;"">
      <p><i>Debrief</i>: In this experiment, we wanted to see how people learn subordinate word meanings (e.g., “dalmatian”) when</p>
      <p>superordinate (e.g., “animal”) and basic-level (e.g., “dog”) meanings can also be reasonable label referents.</p>
      <p>We thought that when presented with three subordinate exemplars (aka the trials with three images), a word will be generalized</p>
      <p>to the subordinate level more often than when presented with one subordinate exemplar (aka the trials with one image).</p>
      <p><b>*Please press any key to save data.*</b></p>
",NA,NA,NA,NA,NA,NA,NA,NA,NA,NA,/Users/martincz/GitHub/COGS119/group_fa24_suspicious_coincidence/analysis/../data/raw_data/p4jsogdq5ca_1732223578771.csv
TRUE,1008,fullscreen,0,null,2025,p5gtqqp484d,moose,NA,NA,NA,NA,NA,NA,NA,NA,NA,NA,NA,NA,NA,NA,NA,/Users/martincz/GitHub/COGS119/group_fa24_suspicious_coincidence/analysis/../data/raw_data/p5gtqqp484d_1732224495421.csv
TRUE,NA,preload,1,2.0.0,2597,p5gtqqp484d,moose,FALSE,[],[],[],NA,NA,NA,NA,NA,NA,NA,NA,NA,NA,NA,/Users/martincz/GitHub/COGS119/group_fa24_suspicious_coincidence/analysis/../data/raw_data/p5gtqqp484d_1732224495421.csv
NA,875,html-keyboard-response,2,2.0.0,3474,p5gtqqp484d,moose,NA,NA,NA,NA,Welcome to the experiment. Press any key to begin.,NA,NA,NA,NA,NA,NA,NA,NA,NA,NA,/Users/martincz/GitHub/COGS119/group_fa24_suspicious_coincidence/analysis/../data/raw_data/p5gtqqp484d_1732224495421.csv
NA,2760,survey-text,3,2.0.0,6260,p5gtqqp484d,moose,NA,NA,NA,NA,NA,"{""participant_id"":""moose""}",NA,NA,NA,NA,NA,NA,NA,NA,NA,/Users/martincz/GitHub/COGS119/group_fa24_suspicious_coincidence/analysis/../data/raw_data/p5gtqqp484d_1732224495421.csv
NA,6680,html-keyboard-response,4,2.0.0,12942,p5gtqqp484d,moose,NA,NA,NA,NA,"
  <p><b>This is Mr. Frog!</b></p>
  <img src=""stimuli/mrfrog.png"" alt=""Mr. Frog"" style=""width:300px;height:300px;"">
  <p>He speaks a different language and needs help finding the items he wants. Can you help Mr. Frog?</p>
  <p>Press any key to move to the next page.</p>
",NA,NA,NA,NA,NA,NA,NA,NA,NA,NA,/Users/martincz/GitHub/COGS119/group_fa24_suspicious_coincidence/analysis/../data/raw_data/p5gtqqp484d_1732224495421.csv
NA,14017,html-keyboard-response,5,2.0.0,26961,p5gtqqp484d,moose,NA,NA,NA,NA,"
  <img src=""stimuli/mrfrog.png"" alt=""Mr. Frog"" style=""width:300px;height:300px;"">
  <p>In each trial, you will be shown an image that will be labeled with a word in the language that Mr. Frog speaks. </p>
  <p>Your job will be to select all the items that you think matches what Mr. Frog is asking for. </p>
  <p>Press any key to begin.</p>
",NA,NA,NA,NA,NA,NA,NA,NA,NA,NA,/Users/martincz/GitHub/COGS119/group_fa24_suspicious_coincidence/analysis/../data/raw_data/p5gtqqp484d_1732224495421.csv
NA,NA,html-button-response,6,2.0.0,58911,p5gtqqp484d,moose,NA,NA,NA,NA,"<img src=""stimuli/c1_sub1.jpg"" style=""width:200px;height:200px;""> 
              <p>Here is a rif. Can you give Mr. Frog all the other rifs?</p>
              <p>Click on all of the rifs below. If you change your mind, you can unselect any image.</p>
              <p>Click the Submit button when you are done selecting all the rifs.</p>",NA,1-item,vegetables,one-subordinate,"[""stimuli/c1_bas3.jpg"",""stimuli/c1_sub5.jpg"",""stimuli/c1_sub4.jpg"",""stimuli/c1_bas4.jpg""]","[9,10,11,17]","[4626,5255,6003,8285]","[""select"",""select"",""select"",""select""]","[""stimuli/c1_bas3.jpg"",""stimuli/c1_sub5.jpg"",""stimuli/c1_sub4.jpg"",""stimuli/c1_bas4.jpg""]",31946,/Users/martincz/GitHub/COGS119/group_fa24_suspicious_coincidence/analysis/../data/raw_data/p5gtqqp484d_1732224495421.csv
NA,NA,html-button-response,7,2.0.0,69108,p5gtqqp484d,moose,NA,NA,NA,NA,"<img src=""stimuli/c3_sub1.jpg"" style=""width:200px;height:200px;""> 
              <p>Here is a fep. Can you give Mr. Frog all the other feps?</p>
              <p>Click on all of the feps below. If you change your mind, you can unselect any image.</p>
              <p>Click the Submit button when you are done selecting all the feps.</p>",NA,1-item,animals,one-subordinate,"[""stimuli/c3_bas3.jpg"",""stimuli/c3_sub5.jpg"",""stimuli/c3_bas4.jpg"",""stimuli/c3_sub4.jpg""]","[8,13,17,21]","[4196,6324,7439,8618]","[""select"",""select"",""select"",""select""]","[""stimuli/c3_bas3.jpg"",""stimuli/c3_sub5.jpg"",""stimuli/c3_bas4.jpg"",""stimuli/c3_sub4.jpg""]",10193,/Users/martincz/GitHub/COGS119/group_fa24_suspicious_coincidence/analysis/../data/raw_data/p5gtqqp484d_1732224495421.csv
NA,NA,html-button-response,8,2.0.0,80514,p5gtqqp484d,moose,NA,NA,NA,NA,"<img src=""stimuli/c2_sub1.jpg"" style=""width:200px;height:200px;""> 
              <p>Here is a tev. Can you give Mr. Frog all the other tevs?</p>
              <p>Click on all of the tevs below. If you change your mind, you can unselect any image.</p>
              <p>Click the Submit button when you are done selecting all the tevs.</p>",NA,1-item,vehicles,one-subordinate,"[""stimuli/c2_sub5.jpg"",""stimuli/c2_bas3.jpg"",""stimuli/c2_bas4.jpg"",""stimuli/c2_sub4.jpg""]","[17,18,19,13]","[3981,6081,6713,7639]","[""select"",""select"",""select"",""select""]","[""stimuli/c2_sub5.jpg"",""stimuli/c2_bas3.jpg"",""stimuli/c2_bas4.jpg"",""stimuli/c2_sub4.jpg""]",11403,/Users/martincz/GitHub/COGS119/group_fa24_suspicious_coincidence/analysis/../data/raw_data/p5gtqqp484d_1732224495421.csv
NA,NA,html-button-response,9,2.0.0,88432,p5gtqqp484d,moose,NA,NA,NA,NA,"<img src=""stimuli/c1_sub1.jpg"" style=""width:200px;height:200px; margin: 5px;""><img src=""stimuli/c1_bas1.jpg"" style=""width:200px;height:200px; margin: 5px;""><img src=""stimuli/c1_bas2.jpg"" style=""width:200px;height:200px; margin: 5px;""><p>Here are some wugs. Can you give Mr. Frog all the other wugs?</p>
                                 <p>Click on all of the wugs below. If you change your mind, you can unselect any image.</p>
                                 <p>Click the Submit button when you are done selecting all the wugs.</p>",NA,3-item,vegetables,basic,"[""stimuli/c1_sub4.jpg"",""stimuli/c1_sub5.jpg"",""stimuli/c1_bas3.jpg"",""stimuli/c1_bas4.jpg""]","[2,7,10,5]","[3092,3669,4838,5485]","[""select"",""select"",""select"",""select""]","[""stimuli/c1_sub4.jpg"",""stimuli/c1_sub5.jpg"",""stimuli/c1_bas3.jpg"",""stimuli/c1_bas4.jpg""]",7913,/Users/martincz/GitHub/COGS119/group_fa24_suspicious_coincidence/analysis/../data/raw_data/p5gtqqp484d_1732224495421.csv
NA,NA,html-button-response,10,2.0.0,96038,p5gtqqp484d,moose,NA,NA,NA,NA,"<img src=""stimuli/c2_sub1.jpg"" style=""width:200px;height:200px; margin: 5px;""><img src=""stimuli/c2_sub2.jpg"" style=""width:200px;height:200px; margin: 5px;""><img src=""stimuli/c2_sub3.jpg"" style=""width:200px;height:200px; margin: 5px;""><p>Here are some tevs. Can you give Mr. Frog all the other tevs?</p>
                                 <p>Click on all of the tevs below. If you change your mind, you can unselect any image.</p>
                                 <p>Click the Submit button when you are done selecting all the tevs.</p>",NA,3-item,vehicles,subordinate,"[""stimuli/c2_sub5.jpg""]",[1],[5294],"[""select""]","[""stimuli/c2_sub5.jpg""]",7602,/Users/martincz/GitHub/COGS119/group_fa24_suspicious_coincidence/analysis/../data/raw_data/p5gtqqp484d_1732224495421.csv
NA,NA,html-button-response,11,2.0.0,120581,p5gtqqp484d,moose,NA,NA,NA,NA,"<img src=""stimuli/c3_sup1.jpg"" style=""width:200px;height:200px; margin: 5px;""><img src=""stimuli/c3_sup2.jpg"" style=""width:200px;height:200px; margin: 5px;""><img src=""stimuli/c3_sub1.jpg"" style=""width:200px;height:200px; margin: 5px;""><p>Here are some meps. Can you give Mr. Frog all the other meps?</p>
                                 <p>Click on all of the meps below. If you change your mind, you can unselect any image.</p>
                                 <p>Click the Submit button when you are done selecting all the meps.</p>",NA,3-item,animals,superordinate,"[""stimuli/c3_bas3.jpg"",""stimuli/c3_sup4.jpg"",""stimuli/c3_bas4.jpg"",""stimuli/c3_sup5.jpg"",""stimuli/c3_sup3.jpg"",""stimuli/c3_sub4.jpg"",""stimuli/c3_sub5.jpg"",""stimuli/c3_sup6.jpg""]","[4,2,1,8,9,10,22,17]","[14877,16563,17697,18741,19277,19868,21769,22435]","[""select"",""select"",""select"",""select"",""select"",""select"",""select"",""select""]","[""stimuli/c3_bas3.jpg"",""stimuli/c3_sup4.jpg"",""stimuli/c3_bas4.jpg"",""stimuli/c3_sup5.jpg"",""stimuli/c3_sup3.jpg"",""stimuli/c3_sub4.jpg"",""stimuli/c3_sub5.jpg"",""stimuli/c3_sup6.jpg""]",24539,/Users/martincz/GitHub/COGS119/group_fa24_suspicious_coincidence/analysis/../data/raw_data/p5gtqqp484d_1732224495421.csv
NA,NA,html-button-response,12,2.0.0,134658,p5gtqqp484d,moose,NA,NA,NA,NA,"<img src=""stimuli/c1_sup2.jpg"" style=""width:200px;height:200px; margin: 5px;""><img src=""stimuli/c1_sup1.jpg"" style=""width:200px;height:200px; margin: 5px;""><img src=""stimuli/c1_sub1.jpg"" style=""width:200px;height:200px; margin: 5px;""><p>Here are some rabs. Can you give Mr. Frog all the other rabs?</p>
