participant_id,random_id,trial_index,trial_number,time_elapsed,condition,category,level,selection_array,selection_index,rt_array,selection_type_array,final_choice_array,final_rt,index,test_choice,choice_type,choice_category,choice_match_category,choice_type_training_consistent
Beaver,p0dl5tzjk4h,6,1,53437,1-item,animals,one-subordinate,"[""stimuli/c3_sub4.jpg"",""stimuli/c3_bas4.jpg"",""stimuli/c3_bas3.jpg"",""stimuli/c3_sub5.jpg""]","[3,1,10,17]","[16199,17247,19259,20625]","[""select"",""select"",""select"",""select""]","[""stimuli/c3_sub4.jpg"",""stimuli/c3_bas4.jpg"",""stimuli/c3_bas3.jpg"",""stimuli/c3_sub5.jpg""]",25107,1,stimuli/c3_sub4.jpg,subordinate,animals,1,1
Beaver,p0dl5tzjk4h,6,1,53437,1-item,animals,one-subordinate,"[""stimuli/c3_sub4.jpg"",""stimuli/c3_bas4.jpg"",""stimuli/c3_bas3.jpg"",""stimuli/c3_sub5.jpg""]","[3,1,10,17]","[16199,17247,19259,20625]","[""select"",""select"",""select"",""select""]","[""stimuli/c3_sub4.jpg"",""stimuli/c3_bas4.jpg"",""stimuli/c3_bas3.jpg"",""stimuli/c3_sub5.jpg""]",25107,2,stimuli/c3_bas4.jpg,basic,animals,1,0
Beaver,p0dl5tzjk4h,6,1,53437,1-item,animals,one-subordinate,"[""stimuli/c3_sub4.jpg"",""stimuli/c3_bas4.jpg"",""stimuli/c3_bas3.jpg"",""stimuli/c3_sub5.jpg""]","[3,1,10,17]","[16199,17247,19259,20625]","[""select"",""select"",""select"",""select""]","[""stimuli/c3_sub4.jpg"",""stimuli/c3_bas4.jpg"",""stimuli/c3_bas3.jpg"",""stimuli/c3_sub5.jpg""]",25107,3,stimuli/c3_bas3.jpg,basic,animals,1,0
Beaver,p0dl5tzjk4h,6,1,53437,1-item,animals,one-subordinate,"[""stimuli/c3_sub4.jpg"",""stimuli/c3_bas4.jpg"",""stimuli/c3_bas3.jpg"",""stimuli/c3_sub5.jpg""]","[3,1,10,17]","[16199,17247,19259,20625]","[""select"",""select"",""select"",""select""]","[""stimuli/c3_sub4.jpg"",""stimuli/c3_bas4.jpg"",""stimuli/c3_bas3.jpg"",""stimuli/c3_sub5.jpg""]",25107,4,stimuli/c3_sub5.jpg,subordinate,animals,1,1
Beaver,p0dl5tzjk4h,7,2,65117,1-item,vegetables,one-subordinate,"[""stimuli/c1_sub5.jpg"",""stimuli/c1_sub4.jpg"",""stimuli/c1_bas4.jpg"",""stimuli/c1_bas3.jpg""]","[1,13,20,19]","[2952,5054,6546,7417]","[""select"",""select"",""select"",""select""]","[""stimuli/c1_sub5.jpg"",""stimuli/c1_sub4.jpg"",""stimuli/c1_bas4.jpg"",""stimuli/c1_bas3.jpg""]",11673,1,stimuli/c1_sub5.jpg,subordinate,vegetables,1,1
Beaver,p0dl5tzjk4h,7,2,65117,1-item,vegetables,one-subordinate,"[""stimuli/c1_sub5.jpg"",""stimuli/c1_sub4.jpg"",""stimuli/c1_bas4.jpg"",""stimuli/c1_bas3.jpg""]","[1,13,20,19]","[2952,5054,6546,7417]","[""select"",""select"",""select"",""select""]","[""stimuli/c1_sub5.jpg"",""stimuli/c1_sub4.jpg"",""stimuli/c1_bas4.jpg"",""stimuli/c1_bas3.jpg""]",11673,2,stimuli/c1_sub4.jpg,subordinate,vegetables,1,1
Beaver,p0dl5tzjk4h,7,2,65117,1-item,vegetables,one-subordinate,"[""stimuli/c1_sub5.jpg"",""stimuli/c1_sub4.jpg"",""stimuli/c1_bas4.jpg"",""stimuli/c1_bas3.jpg""]","[1,13,20,19]","[2952,5054,6546,7417]","[""select"",""select"",""select"",""select""]","[""stimuli/c1_sub5.jpg"",""stimuli/c1_sub4.jpg"",""stimuli/c1_bas4.jpg"",""stimuli/c1_bas3.jpg""]",11673,3,stimuli/c1_bas4.jpg,basic,vegetables,1,0
Beaver,p0dl5tzjk4h,7,2,65117,1-item,vegetables,one-subordinate,"[""stimuli/c1_sub5.jpg"",""stimuli/c1_sub4.jpg"",""stimuli/c1_bas4.jpg"",""stimuli/c1_bas3.jpg""]","[1,13,20,19]","[2952,5054,6546,7417]","[""select"",""select"",""select"",""select""]","[""stimuli/c1_sub5.jpg"",""stimuli/c1_sub4.jpg"",""stimuli/c1_bas4.jpg"",""stimuli/c1_bas3.jpg""]",11673,4,stimuli/c1_bas3.jpg,basic,vegetables,1,0
Beaver,p0dl5tzjk4h,8,3,76578,1-item,vehicles,one-subordinate,"[""stimuli/c2_sub4.jpg"",""stimuli/c2_bas3.jpg"",""stimuli/c2_bas4.jpg"",""stimuli/c2_sub5.jpg""]","[4,13,6,19]","[3784,6418,7216,9505]","[""select"",""select"",""select"",""select""]","[""stimuli/c2_sub4.jpg"",""stimuli/c2_bas3.jpg"",""stimuli/c2_bas4.jpg"",""stimuli/c2_sub5.jpg""]",11455,1,stimuli/c2_sub4.jpg,subordinate,vehicles,1,1
Beaver,p0dl5tzjk4h,8,3,76578,1-item,vehicles,one-subordinate,"[""stimuli/c2_sub4.jpg"",""stimuli/c2_bas3.jpg"",""stimuli/c2_bas4.jpg"",""stimuli/c2_sub5.jpg""]","[4,13,6,19]","[3784,6418,7216,9505]","[""select"",""select"",""select"",""select""]","[""stimuli/c2_sub4.jpg"",""stimuli/c2_bas3.jpg"",""stimuli/c2_bas4.jpg"",""stimuli/c2_sub5.jpg""]",11455,2,stimuli/c2_bas3.jpg,basic,vehicles,1,0
Beaver,p0dl5tzjk4h,8,3,76578,1-item,vehicles,one-subordinate,"[""stimuli/c2_sub4.jpg"",""stimuli/c2_bas3.jpg"",""stimuli/c2_bas4.jpg"",""stimuli/c2_sub5.jpg""]","[4,13,6,19]","[3784,6418,7216,9505]","[""select"",""select"",""select"",""select""]","[""stimuli/c2_sub4.jpg"",""stimuli/c2_bas3.jpg"",""stimuli/c2_bas4.jpg"",""stimuli/c2_sub5.jpg""]",11455,3,stimuli/c2_bas4.jpg,basic,vehicles,1,0
Beaver,p0dl5tzjk4h,8,3,76578,1-item,vehicles,one-subordinate,"[""stimuli/c2_sub4.jpg"",""stimuli/c2_bas3.jpg"",""stimuli/c2_bas4.jpg"",""stimuli/c2_sub5.jpg""]","[4,13,6,19]","[3784,6418,7216,9505]","[""select"",""select"",""select"",""select""]","[""stimuli/c2_sub4.jpg"",""stimuli/c2_bas3.jpg"",""stimuli/c2_bas4.jpg"",""stimuli/c2_sub5.jpg""]",11455,4,stimuli/c2_sub5.jpg,subordinate,vehicles,1,1
Beaver,p0dl5tzjk4h,9,4,92753,3-item,vegetables,superordinate,"[""stimuli/c1_sup3.jpg"",""stimuli/c1_bas3.jpg"",""stimuli/c1_bas4.jpg"",""stimuli/c1_sub5.jpg"",""stimuli/c1_sub4.jpg"",""stimuli/c1_sup5.jpg"",""stimuli/c1_sup6.jpg"",""stimuli/c1_sup4.jpg""]","[1,0,4,11,9,15,22,18]","[7635,8391,9499,10170,11064,12397,13662,14780]","[""select"",""select"",""select"",""select"",""select"",""select"",""select"",""select""]","[""stimuli/c1_sup3.jpg"",""stimuli/c1_bas3.jpg"",""stimuli/c1_bas4.jpg"",""stimuli/c1_sub5.jpg"",""stimuli/c1_sub4.jpg"",""stimuli/c1_sup5.jpg"",""stimuli/c1_sup6.jpg"",""stimuli/c1_sup4.jpg""]",16168,1,stimuli/c1_sup3.jpg,superordinate,vegetables,1,1
Beaver,p0dl5tzjk4h,9,4,92753,3-item,vegetables,superordinate,"[""stimuli/c1_sup3.jpg"",""stimuli/c1_bas3.jpg"",""stimuli/c1_bas4.jpg"",""stimuli/c1_sub5.jpg"",""stimuli/c1_sub4.jpg"",""stimuli/c1_sup5.jpg"",""stimuli/c1_sup6.jpg"",""stimuli/c1_sup4.jpg""]","[1,0,4,11,9,15,22,18]","[7635,8391,9499,10170,11064,12397,13662,14780]","[""select"",""select"",""select"",""select"",""select"",""select"",""select"",""select""]","[""stimuli/c1_sup3.jpg"",""stimuli/c1_bas3.jpg"",""stimuli/c1_bas4.jpg"",""stimuli/c1_sub5.jpg"",""stimuli/c1_sub4.jpg"",""stimuli/c1_sup5.jpg"",""stimuli/c1_sup6.jpg"",""stimuli/c1_sup4.jpg""]",16168,2,stimuli/c1_bas3.jpg,basic,vegetables,1,1
Beaver,p0dl5tzjk4h,9,4,92753,3-item,vegetables,superordinate,"[""stimuli/c1_sup3.jpg"",""stimuli/c1_bas3.jpg"",""stimuli/c1_bas4.jpg"",""stimuli/c1_sub5.jpg"",""stimuli/c1_sub4.jpg"",""stimuli/c1_sup5.jpg"",""stimuli/c1_sup6.jpg"",""stimuli/c1_sup4.jpg""]","[1,0,4,11,9,15,22,18]","[7635,8391,9499,10170,11064,12397,13662,14780]","[""select"",""select"",""select"",""select"",""select"",""select"",""select"",""select""]","[""stimuli/c1_sup3.jpg"",""stimuli/c1_bas3.jpg"",""stimuli/c1_bas4.jpg"",""stimuli/c1_sub5.jpg"",""stimuli/c1_sub4.jpg"",""stimuli/c1_sup5.jpg"",""stimuli/c1_sup6.jpg"",""stimuli/c1_sup4.jpg""]",16168,3,stimuli/c1_bas4.jpg,basic,vegetables,1,1
Beaver,p0dl5tzjk4h,9,4,92753,3-item,vegetables,superordinate,"[""stimuli/c1_sup3.jpg"",""stimuli/c1_bas3.jpg"",""stimuli/c1_bas4.jpg"",""stimuli/c1_sub5.jpg"",""stimuli/c1_sub4.jpg"",""stimuli/c1_sup5.jpg"",""stimuli/c1_sup6.jpg"",""stimuli/c1_sup4.jpg""]","[1,0,4,11,9,15,22,18]","[7635,8391,9499,10170,11064,12397,13662,14780]","[""select"",""select"",""select"",""select"",""select"",""select"",""select"",""select""]","[""stimuli/c1_sup3.jpg"",""stimuli/c1_bas3.jpg"",""stimuli/c1_bas4.jpg"",""stimuli/c1_sub5.jpg"",""stimuli/c1_sub4.jpg"",""stimuli/c1_sup5.jpg"",""stimuli/c1_sup6.jpg"",""stimuli/c1_sup4.jpg""]",16168,4,stimuli/c1_sub5.jpg,subordinate,vegetables,1,1
Beaver,p0dl5tzjk4h,9,4,92753,3-item,vegetables,superordinate,"[""stimuli/c1_sup3.jpg"",""stimuli/c1_bas3.jpg"",""stimuli/c1_bas4.jpg"",""stimuli/c1_sub5.jpg"",""stimuli/c1_sub4.jpg"",""stimuli/c1_sup5.jpg"",""stimuli/c1_sup6.jpg"",""stimuli/c1_sup4.jpg""]","[1,0,4,11,9,15,22,18]","[7635,8391,9499,10170,11064,12397,13662,14780]","[""select"",""select"",""select"",""select"",""select"",""select"",""select"",""select""]","[""stimuli/c1_sup3.jpg"",""stimuli/c1_bas3.jpg"",""stimuli/c1_bas4.jpg"",""stimuli/c1_sub5.jpg"",""stimuli/c1_sub4.jpg"",""stimuli/c1_sup5.jpg"",""stimuli/c1_sup6.jpg"",""stimuli/c1_sup4.jpg""]",16168,5,stimuli/c1_sub4.jpg,subordinate,vegetables,1,1
Beaver,p0dl5tzjk4h,9,4,92753,3-item,vegetables,superordinate,"[""stimuli/c1_sup3.jpg"",""stimuli/c1_bas3.jpg"",""stimuli/c1_bas4.jpg"",""stimuli/c1_sub5.jpg"",""stimuli/c1_sub4.jpg"",""stimuli/c1_sup5.jpg"",""stimuli/c1_sup6.jpg"",""stimuli/c1_sup4.jpg""]","[1,0,4,11,9,15,22,18]","[7635,8391,9499,10170,11064,12397,13662,14780]","[""select"",""select"",""select"",""select"",""select"",""select"",""select"",""select""]","[""stimuli/c1_sup3.jpg"",""stimuli/c1_bas3.jpg"",""stimuli/c1_bas4.jpg"",""stimuli/c1_sub5.jpg"",""stimuli/c1_sub4.jpg"",""stimuli/c1_sup5.jpg"",""stimuli/c1_sup6.jpg"",""stimuli/c1_sup4.jpg""]",16168,6,stimuli/c1_sup5.jpg,superordinate,vegetables,1,1
Beaver,p0dl5tzjk4h,9,4,92753,3-item,vegetables,superordinate,"[""stimuli/c1_sup3.jpg"",""stimuli/c1_bas3.jpg"",""stimuli/c1_bas4.jpg"",""stimuli/c1_sub5.jpg"",""stimuli/c1_sub4.jpg"",""stimuli/c1_sup5.jpg"",""stimuli/c1_sup6.jpg"",""stimuli/c1_sup4.jpg""]","[1,0,4,11,9,15,22,18]","[7635,8391,9499,10170,11064,12397,13662,14780]","[""select"",""select"",""select"",""select"",""select"",""select"",""select"",""select""]","[""stimuli/c1_sup3.jpg"",""stimuli/c1_bas3.jpg"",""stimuli/c1_bas4.jpg"",""stimuli/c1_sub5.jpg"",""stimuli/c1_sub4.jpg"",""stimuli/c1_sup5.jpg"",""stimuli/c1_sup6.jpg"",""stimuli/c1_sup4.jpg""]",16168,7,stimuli/c1_sup6.jpg,superordinate,vegetables,1,1
Beaver,p0dl5tzjk4h,9,4,92753,3-item,vegetables,superordinate,"[""stimuli/c1_sup3.jpg"",""stimuli/c1_bas3.jpg"",""stimuli/c1_bas4.jpg"",""stimuli/c1_sub5.jpg"",""stimuli/c1_sub4.jpg"",""stimuli/c1_sup5.jpg"",""stimuli/c1_sup6.jpg"",""stimuli/c1_sup4.jpg""]","[1,0,4,11,9,15,22,18]","[7635,8391,9499,10170,11064,12397,13662,14780]","[""select"",""select"",""select"",""select"",""select"",""select"",""select"",""select""]","[""stimuli/c1_sup3.jpg"",""stimuli/c1_bas3.jpg"",""stimuli/c1_bas4.jpg"",""stimuli/c1_sub5.jpg"",""stimuli/c1_sub4.jpg"",""stimuli/c1_sup5.jpg"",""stimuli/c1_sup6.jpg"",""stimuli/c1_sup4.jpg""]",16168,8,stimuli/c1_sup4.jpg,superordinate,vegetables,1,1
Beaver,p0dl5tzjk4h,10,5,106678,3-item,vehicles,subordinate,"[""stimuli/c2_sub4.jpg"",""stimuli/c2_sub5.jpg""]","[5,9]","[6939,8868]","[""select"",""select""]","[""stimuli/c2_sub4.jpg"",""stimuli/c2_sub5.jpg""]",13918,1,stimuli/c2_sub4.jpg,subordinate,vehicles,1,1
Beaver,p0dl5tzjk4h,10,5,106678,3-item,vehicles,subordinate,"[""stimuli/c2_sub4.jpg"",""stimuli/c2_sub5.jpg""]","[5,9]","[6939,8868]","[""select"",""select""]","[""stimuli/c2_sub4.jpg"",""stimuli/c2_sub5.jpg""]",13918,2,stimuli/c2_sub5.jpg,subordinate,vehicles,1,1
Beaver,p0dl5tzjk4h,11,6,117852,3-item,vehicles,basic,"[""stimuli/c2_sub4.jpg"",""stimuli/c2_bas4.jpg"",""stimuli/c2_bas3.jpg"",""stimuli/c2_sub5.jpg""]","[8,4,15,20]","[4523,5468,7271,8802]","[""select"",""select"",""select"",""select""]","[""stimuli/c2_sub4.jpg"",""stimuli/c2_bas4.jpg"",""stimuli/c2_bas3.jpg"",""stimuli/c2_sub5.jpg""]",11168,1,stimuli/c2_sub4.jpg,subordinate,vehicles,1,1
Beaver,p0dl5tzjk4h,11,6,117852,3-item,vehicles,basic,"[""stimuli/c2_sub4.jpg"",""stimuli/c2_bas4.jpg"",""stimuli/c2_bas3.jpg"",""stimuli/c2_sub5.jpg""]","[8,4,15,20]","[4523,5468,7271,8802]","[""select"",""select"",""select"",""select""]","[""stimuli/c2_sub4.jpg"",""stimuli/c2_bas4.jpg"",""stimuli/c2_bas3.jpg"",""stimuli/c2_sub5.jpg""]",11168,2,stimuli/c2_bas4.jpg,basic,vehicles,1,1
Beaver,p0dl5tzjk4h,11,6,117852,3-item,vehicles,basic,"[""stimuli/c2_sub4.jpg"",""stimuli/c2_bas4.jpg"",""stimuli/c2_bas3.jpg"",""stimuli/c2_sub5.jpg""]","[8,4,15,20]","[4523,5468,7271,8802]","[""select"",""select"",""select"",""select""]","[""stimuli/c2_sub4.jpg"",""stimuli/c2_bas4.jpg"",""stimuli/c2_bas3.jpg"",""stimuli/c2_sub5.jpg""]",11168,3,stimuli/c2_bas3.jpg,basic,vehicles,1,1
Beaver,p0dl5tzjk4h,11,6,117852,3-item,vehicles,basic,"[""stimuli/c2_sub4.jpg"",""stimuli/c2_bas4.jpg"",""stimuli/c2_bas3.jpg"",""stimuli/c2_sub5.jpg""]","[8,4,15,20]","[4523,5468,7271,8802]","[""select"",""select"",""select"",""select""]","[""stimuli/c2_sub4.jpg"",""stimuli/c2_bas4.jpg"",""stimuli/c2_bas3.jpg"",""stimuli/c2_sub5.jpg""]",11168,4,stimuli/c2_sub5.jpg,subordinate,vehicles,1,1
Beaver,p0dl5tzjk4h,12,7,134674,3-item,animals,basic,"[""stimuli/c3_sub5.jpg"",""stimuli/c3_sub4.jpg"",""stimuli/c3_bas3.jpg"",""stimuli/c3_bas4.jpg""]","[3,5,14,13]","[6693,7882,10351,11020]","[""select"",""select"",""select"",""select""]","[""stimuli/c3_sub5.jpg"",""stimuli/c3_sub4.jpg"",""stimuli/c3_bas3.jpg"",""stimuli/c3_bas4.jpg""]",16815,1,stimuli/c3_sub5.jpg,subordinate,animals,1,1
Beaver,p0dl5tzjk4h,12,7,134674,3-item,animals,basic,"[""stimuli/c3_sub5.jpg"",""stimuli/c3_sub4.jpg"",""stimuli/c3_bas3.jpg"",""stimuli/c3_bas4.jpg""]","[3,5,14,13]","[6693,7882,10351,11020]","[""select"",""select"",""select"",""select""]","[""stimuli/c3_sub5.jpg"",""stimuli/c3_sub4.jpg"",""stimuli/c3_bas3.jpg"",""stimuli/c3_bas4.jpg""]",16815,2,stimuli/c3_sub4.jpg,subordinate,animals,1,1
Beaver,p0dl5tzjk4h,12,7,134674,3-item,animals,basic,"[""stimuli/c3_sub5.jpg"",""stimuli/c3_sub4.jpg"",""stimuli/c3_bas3.jpg"",""stimuli/c3_bas4.jpg""]","[3,5,14,13]","[6693,7882,10351,11020]","[""select"",""select"",""select"",""select""]","[""stimuli/c3_sub5.jpg"",""stimuli/c3_sub4.jpg"",""stimuli/c3_bas3.jpg"",""stimuli/c3_bas4.jpg""]",16815,3,stimuli/c3_bas3.jpg,basic,animals,1,1
Beaver,p0dl5tzjk4h,12,7,134674,3-item,animals,basic,"[""stimuli/c3_sub5.jpg"",""stimuli/c3_sub4.jpg"",""stimuli/c3_bas3.jpg"",""stimuli/c3_bas4.jpg""]","[3,5,14,13]","[6693,7882,10351,11020]","[""select"",""select"",""select"",""select""]","[""stimuli/c3_sub5.jpg"",""stimuli/c3_sub4.jpg"",""stimuli/c3_bas3.jpg"",""stimuli/c3_bas4.jpg""]",16815,4,stimuli/c3_bas4.jpg,basic,animals,1,1
Beaver,p0dl5tzjk4h,13,8,147298,3-item,vegetables,basic,"[""stimuli/c1_sub5.jpg"",""stimuli/c1_sub4.jpg"",""stimuli/c1_bas3.jpg"",""stimuli/c1_bas4.jpg""]","[3,4,8,23]","[4353,5090,6720,9575]","[""select"",""select"",""select"",""select""]","[""stimuli/c1_sub5.jpg"",""stimuli/c1_sub4.jpg"",""stimuli/c1_bas3.jpg"",""stimuli/c1_bas4.jpg""]",12618,1,stimuli/c1_sub5.jpg,subordinate,vegetables,1,1
Beaver,p0dl5tzjk4h,13,8,147298,3-item,vegetables,basic,"[""stimuli/c1_sub5.jpg"",""stimuli/c1_sub4.jpg"",""stimuli/c1_bas3.jpg"",""stimuli/c1_bas4.jpg""]","[3,4,8,23]","[4353,5090,6720,9575]","[""select"",""select"",""select"",""select""]","[""stimuli/c1_sub5.jpg"",""stimuli/c1_sub4.jpg"",""stimuli/c1_bas3.jpg"",""stimuli/c1_bas4.jpg""]",12618,2,stimuli/c1_sub4.jpg,subordinate,vegetables,1,1
Beaver,p0dl5tzjk4h,13,8,147298,3-item,vegetables,basic,"[""stimuli/c1_sub5.jpg"",""stimuli/c1_sub4.jpg"",""stimuli/c1_bas3.jpg"",""stimuli/c1_bas4.jpg""]","[3,4,8,23]","[4353,5090,6720,9575]","[""select"",""select"",""select"",""select""]","[""stimuli/c1_sub5.jpg"",""stimuli/c1_sub4.jpg"",""stimuli/c1_bas3.jpg"",""stimuli/c1_bas4.jpg""]",12618,3,stimuli/c1_bas3.jpg,basic,vegetables,1,1
Beaver,p0dl5tzjk4h,13,8,147298,3-item,vegetables,basic,"[""stimuli/c1_sub5.jpg"",""stimuli/c1_sub4.jpg"",""stimuli/c1_bas3.jpg"",""stimuli/c1_bas4.jpg""]","[3,4,8,23]","[4353,5090,6720,9575]","[""select"",""select"",""select"",""select""]","[""stimuli/c1_sub5.jpg"",""stimuli/c1_sub4.jpg"",""stimuli/c1_bas3.jpg"",""stimuli/c1_bas4.jpg""]",12618,4,stimuli/c1_bas4.jpg,basic,vegetables,1,1
Beaver,p0dl5tzjk4h,14,9,171860,3-item,vehicles,superordinate,"[""stimuli/c2_bas3.jpg"",""stimuli/c2_sup3.jpg"",""stimuli/c2_sub5.jpg"",""stimuli/c2_sup6.jpg"",""stimuli/c2_sup4.jpg"",""stimuli/c2_bas4.jpg"",""stimuli/c2_sub4.jpg"",""stimuli/c2_sup5.jpg""]","[16,5,12,18,21,22,23,6]","[13578,14671,16079,17706,19055,19684,20369,22324]","[""select"",""select"",""select"",""select"",""select"",""select"",""select"",""select""]","[""stimuli/c2_bas3.jpg"",""stimuli/c2_sup3.jpg"",""stimuli/c2_sub5.jpg"",""stimuli/c2_sup6.jpg"",""stimuli/c2_sup4.jpg"",""stimuli/c2_bas4.jpg"",""stimuli/c2_sub4.jpg"",""stimuli/c2_sup5.jpg""]",24556,1,stimuli/c2_bas3.jpg,basic,vehicles,1,1
Beaver,p0dl5tzjk4h,14,9,171860,3-item,vehicles,superordinate,"[""stimuli/c2_bas3.jpg"",""stimuli/c2_sup3.jpg"",""stimuli/c2_sub5.jpg"",""stimuli/c2_sup6.jpg"",""stimuli/c2_sup4.jpg"",""stimuli/c2_bas4.jpg"",""stimuli/c2_sub4.jpg"",""stimuli/c2_sup5.jpg""]","[16,5,12,18,21,22,23,6]","[13578,14671,16079,17706,19055,19684,20369,22324]","[""select"",""select"",""select"",""select"",""select"",""select"",""select"",""select""]","[""stimuli/c2_bas3.jpg"",""stimuli/c2_sup3.jpg"",""stimuli/c2_sub5.jpg"",""stimuli/c2_sup6.jpg"",""stimuli/c2_sup4.jpg"",""stimuli/c2_bas4.jpg"",""stimuli/c2_sub4.jpg"",""stimuli/c2_sup5.jpg""]",24556,2,stimuli/c2_sup3.jpg,superordinate,vehicles,1,1
Beaver,p0dl5tzjk4h,14,9,171860,3-item,vehicles,superordinate,"[""stimuli/c2_bas3.jpg"",""stimuli/c2_sup3.jpg"",""stimuli/c2_sub5.jpg"",""stimuli/c2_sup6.jpg"",""stimuli/c2_sup4.jpg"",""stimuli/c2_bas4.jpg"",""stimuli/c2_sub4.jpg"",""stimuli/c2_sup5.jpg""]","[16,5,12,18,21,22,23,6]","[13578,14671,16079,17706,19055,19684,20369,22324]","[""select"",""select"",""select"",""select"",""select"",""select"",""select"",""select""]","[""stimuli/c2_bas3.jpg"",""stimuli/c2_sup3.jpg"",""stimuli/c2_sub5.jpg"",""stimuli/c2_sup6.jpg"",""stimuli/c2_sup4.jpg"",""stimuli/c2_bas4.jpg"",""stimuli/c2_sub4.jpg"",""stimuli/c2_sup5.jpg""]",24556,3,stimuli/c2_sub5.jpg,subordinate,vehicles,1,1
Beaver,p0dl5tzjk4h,14,9,171860,3-item,vehicles,superordinate,"[""stimuli/c2_bas3.jpg"",""stimuli/c2_sup3.jpg"",""stimuli/c2_sub5.jpg"",""stimuli/c2_sup6.jpg"",""stimuli/c2_sup4.jpg"",""stimuli/c2_bas4.jpg"",""stimuli/c2_sub4.jpg"",""stimuli/c2_sup5.jpg""]","[16,5,12,18,21,22,23,6]","[13578,14671,16079,17706,19055,19684,20369,22324]","[""select"",""select"",""select"",""select"",""select"",""select"",""select"",""select""]","[""stimuli/c2_bas3.jpg"",""stimuli/c2_sup3.jpg"",""stimuli/c2_sub5.jpg"",""stimuli/c2_sup6.jpg"",""stimuli/c2_sup4.jpg"",""stimuli/c2_bas4.jpg"",""stimuli/c2_sub4.jpg"",""stimuli/c2_sup5.jpg""]",24556,4,stimuli/c2_sup6.jpg,superordinate,vehicles,1,1
Beaver,p0dl5tzjk4h,14,9,171860,3-item,vehicles,superordinate,"[""stimuli/c2_bas3.jpg"",""stimuli/c2_sup3.jpg"",""stimuli/c2_sub5.jpg"",""stimuli/c2_sup6.jpg"",""stimuli/c2_sup4.jpg"",""stimuli/c2_bas4.jpg"",""stimuli/c2_sub4.jpg"",""stimuli/c2_sup5.jpg""]","[16,5,12,18,21,22,23,6]","[13578,14671,16079,17706,19055,19684,20369,22324]","[""select"",""select"",""select"",""select"",""select"",""select"",""select"",""select""]","[""stimuli/c2_bas3.jpg"",""stimuli/c2_sup3.jpg"",""stimuli/c2_sub5.jpg"",""stimuli/c2_sup6.jpg"",""stimuli/c2_sup4.jpg"",""stimuli/c2_bas4.jpg"",""stimuli/c2_sub4.jpg"",""stimuli/c2_sup5.jpg""]",24556,5,stimuli/c2_sup4.jpg,superordinate,vehicles,1,1
Beaver,p0dl5tzjk4h,14,9,171860,3-item,vehicles,superordinate,"[""stimuli/c2_bas3.jpg"",""stimuli/c2_sup3.jpg"",""stimuli/c2_sub5.jpg"",""stimuli/c2_sup6.jpg"",""stimuli/c2_sup4.jpg"",""stimuli/c2_bas4.jpg"",""stimuli/c2_sub4.jpg"",""stimuli/c2_sup5.jpg""]","[16,5,12,18,21,22,23,6]","[13578,14671,16079,17706,19055,19684,20369,22324]","[""select"",""select"",""select"",""select"",""select"",""select"",""select"",""select""]","[""stimuli/c2_bas3.jpg"",""stimuli/c2_sup3.jpg"",""stimuli/c2_sub5.jpg"",""stimuli/c2_sup6.jpg"",""stimuli/c2_sup4.jpg"",""stimuli/c2_bas4.jpg"",""stimuli/c2_sub4.jpg"",""stimuli/c2_sup5.jpg""]",24556,6,stimuli/c2_bas4.jpg,basic,vehicles,1,1
Beaver,p0dl5tzjk4h,14,9,171860,3-item,vehicles,superordinate,"[""stimuli/c2_bas3.jpg"",""stimuli/c2_sup3.jpg"",""stimuli/c2_sub5.jpg"",""stimuli/c2_sup6.jpg"",""stimuli/c2_sup4.jpg"",""stimuli/c2_bas4.jpg"",""stimuli/c2_sub4.jpg"",""stimuli/c2_sup5.jpg""]","[16,5,12,18,21,22,23,6]","[13578,14671,16079,17706,19055,19684,20369,22324]","[""select"",""select"",""select"",""select"",""select"",""select"",""select"",""select""]","[""stimuli/c2_bas3.jpg"",""stimuli/c2_sup3.jpg"",""stimuli/c2_sub5.jpg"",""stimuli/c2_sup6.jpg"",""stimuli/c2_sup4.jpg"",""stimuli/c2_bas4.jpg"",""stimuli/c2_sub4.jpg"",""stimuli/c2_sup5.jpg""]",24556,7,stimuli/c2_sub4.jpg,subordinate,vehicles,1,1
Beaver,p0dl5tzjk4h,14,9,171860,3-item,vehicles,superordinate,"[""stimuli/c2_bas3.jpg"",""stimuli/c2_sup3.jpg"",""stimuli/c2_sub5.jpg"",""stimuli/c2_sup6.jpg"",""stimuli/c2_sup4.jpg"",""stimuli/c2_bas4.jpg"",""stimuli/c2_sub4.jpg"",""stimuli/c2_sup5.jpg""]","[16,5,12,18,21,22,23,6]","[13578,14671,16079,17706,19055,19684,20369,22324]","[""select"",""select"",""select"",""select"",""select"",""select"",""select"",""select""]","[""stimuli/c2_bas3.jpg"",""stimuli/c2_sup3.jpg"",""stimuli/c2_sub5.jpg"",""stimuli/c2_sup6.jpg"",""stimuli/c2_sup4.jpg"",""stimuli/c2_bas4.jpg"",""stimuli/c2_sub4.jpg"",""stimuli/c2_sup5.jpg""]",24556,8,stimuli/c2_sup5.jpg,superordinate,vehicles,1,1
Beaver,p0dl5tzjk4h,15,10,185209,3-item,animals,superordinate,"[""stimuli/c3_sup4.jpg"",""stimuli/c3_sub4.jpg"",""stimuli/c3_bas3.jpg"",""stimuli/c3_sub5.jpg"",""stimuli/c3_sup6.jpg"",""stimuli/c3_sup5.jpg"",""stimuli/c3_bas4.jpg"",""stimuli/c3_sup3.jpg""]","[4,9,15,13,12,18,22,21]","[5940,6740,7542,8452,9185,10439,11795,12473]","[""select"",""select"",""select"",""select"",""select"",""select"",""select"",""select""]","[""stimuli/c3_sup4.jpg"",""stimuli/c3_sub4.jpg"",""stimuli/c3_bas3.jpg"",""stimuli/c3_sub5.jpg"",""stimuli/c3_sup6.jpg"",""stimuli/c3_sup5.jpg"",""stimuli/c3_bas4.jpg"",""stimuli/c3_sup3.jpg""]",13342,1,stimuli/c3_sup4.jpg,superordinate,animals,1,1
Beaver,p0dl5tzjk4h,15,10,185209,3-item,animals,superordinate,"[""stimuli/c3_sup4.jpg"",""stimuli/c3_sub4.jpg"",""stimuli/c3_bas3.jpg"",""stimuli/c3_sub5.jpg"",""stimuli/c3_sup6.jpg"",""stimuli/c3_sup5.jpg"",""stimuli/c3_bas4.jpg"",""stimuli/c3_sup3.jpg""]","[4,9,15,13,12,18,22,21]","[5940,6740,7542,8452,9185,10439,11795,12473]","[""select"",""select"",""select"",""select"",""select"",""select"",""select"",""select""]","[""stimuli/c3_sup4.jpg"",""stimuli/c3_sub4.jpg"",""stimuli/c3_bas3.jpg"",""stimuli/c3_sub5.jpg"",""stimuli/c3_sup6.jpg"",""stimuli/c3_sup5.jpg"",""stimuli/c3_bas4.jpg"",""stimuli/c3_sup3.jpg""]",13342,2,stimuli/c3_sub4.jpg,subordinate,animals,1,1
Beaver,p0dl5tzjk4h,15,10,185209,3-item,animals,superordinate,"[""stimuli/c3_sup4.jpg"",""stimuli/c3_sub4.jpg"",""stimuli/c3_bas3.jpg"",""stimuli/c3_sub5.jpg"",""stimuli/c3_sup6.jpg"",""stimuli/c3_sup5.jpg"",""stimuli/c3_bas4.jpg"",""stimuli/c3_sup3.jpg""]","[4,9,15,13,12,18,22,21]","[5940,6740,7542,8452,9185,10439,11795,12473]","[""select"",""select"",""select"",""select"",""select"",""select"",""select"",""select""]","[""stimuli/c3_sup4.jpg"",""stimuli/c3_sub4.jpg"",""stimuli/c3_bas3.jpg"",""stimuli/c3_sub5.jpg"",""stimuli/c3_sup6.jpg"",""stimuli/c3_sup5.jpg"",""stimuli/c3_bas4.jpg"",""stimuli/c3_sup3.jpg""]",13342,3,stimuli/c3_bas3.jpg,basic,animals,1,1
Beaver,p0dl5tzjk4h,15,10,185209,3-item,animals,superordinate,"[""stimuli/c3_sup4.jpg"",""stimuli/c3_sub4.jpg"",""stimuli/c3_bas3.jpg"",""stimuli/c3_sub5.jpg"",""stimuli/c3_sup6.jpg"",""stimuli/c3_sup5.jpg"",""stimuli/c3_bas4.jpg"",""stimuli/c3_sup3.jpg""]","[4,9,15,13,12,18,22,21]","[5940,6740,7542,8452,9185,10439,11795,12473]","[""select"",""select"",""select"",""select"",""select"",""select"",""select"",""select""]","[""stimuli/c3_sup4.jpg"",""stimuli/c3_sub4.jpg"",""stimuli/c3_bas3.jpg"",""stimuli/c3_sub5.jpg"",""stimuli/c3_sup6.jpg"",""stimuli/c3_sup5.jpg"",""stimuli/c3_bas4.jpg"",""stimuli/c3_sup3.jpg""]",13342,4,stimuli/c3_sub5.jpg,subordinate,animals,1,1
Beaver,p0dl5tzjk4h,15,10,185209,3-item,animals,superordinate,"[""stimuli/c3_sup4.jpg"",""stimuli/c3_sub4.jpg"",""stimuli/c3_bas3.jpg"",""stimuli/c3_sub5.jpg"",""stimuli/c3_sup6.jpg"",""stimuli/c3_sup5.jpg"",""stimuli/c3_bas4.jpg"",""stimuli/c3_sup3.jpg""]","[4,9,15,13,12,18,22,21]","[5940,6740,7542,8452,9185,10439,11795,12473]","[""select"",""select"",""select"",""select"",""select"",""select"",""select"",""select""]","[""stimuli/c3_sup4.jpg"",""stimuli/c3_sub4.jpg"",""stimuli/c3_bas3.jpg"",""stimuli/c3_sub5.jpg"",""stimuli/c3_sup6.jpg"",""stimuli/c3_sup5.jpg"",""stimuli/c3_bas4.jpg"",""stimuli/c3_sup3.jpg""]",13342,5,stimuli/c3_sup6.jpg,superordinate,animals,1,1
Beaver,p0dl5tzjk4h,15,10,185209,3-item,animals,superordinate,"[""stimuli/c3_sup4.jpg"",""stimuli/c3_sub4.jpg"",""stimuli/c3_bas3.jpg"",""stimuli/c3_sub5.jpg"",""stimuli/c3_sup6.jpg"",""stimuli/c3_sup5.jpg"",""stimuli/c3_bas4.jpg"",""stimuli/c3_sup3.jpg""]","[4,9,15,13,12,18,22,21]","[5940,6740,7542,8452,9185,10439,11795,12473]","[""select"",""select"",""select"",""select"",""select"",""select"",""select"",""select""]","[""stimuli/c3_sup4.jpg"",""stimuli/c3_sub4.jpg"",""stimuli/c3_bas3.jpg"",""stimuli/c3_sub5.jpg"",""stimuli/c3_sup6.jpg"",""stimuli/c3_sup5.jpg"",""stimuli/c3_bas4.jpg"",""stimuli/c3_sup3.jpg""]",13342,6,stimuli/c3_sup5.jpg,superordinate,animals,1,1
Beaver,p0dl5tzjk4h,15,10,185209,3-item,animals,superordinate,"[""stimuli/c3_sup4.jpg"",""stimuli/c3_sub4.jpg"",""stimuli/c3_bas3.jpg"",""stimuli/c3_sub5.jpg"",""stimuli/c3_sup6.jpg"",""stimuli/c3_sup5.jpg"",""stimuli/c3_bas4.jpg"",""stimuli/c3_sup3.jpg""]","[4,9,15,13,12,18,22,21]","[5940,6740,7542,8452,9185,10439,11795,12473]","[""select"",""select"",""select"",""select"",""select"",""select"",""select"",""select""]","[""stimuli/c3_sup4.jpg"",""stimuli/c3_sub4.jpg"",""stimuli/c3_bas3.jpg"",""stimuli/c3_sub5.jpg"",""stimuli/c3_sup6.jpg"",""stimuli/c3_sup5.jpg"",""stimuli/c3_bas4.jpg"",""stimuli/c3_sup3.jpg""]",13342,7,stimuli/c3_bas4.jpg,basic,animals,1,1
Beaver,p0dl5tzjk4h,15,10,185209,3-item,animals,superordinate,"[""stimuli/c3_sup4.jpg"",""stimuli/c3_sub4.jpg"",""stimuli/c3_bas3.jpg"",""stimuli/c3_sub5.jpg"",""stimuli/c3_sup6.jpg"",""stimuli/c3_sup5.jpg"",""stimuli/c3_bas4.jpg"",""stimuli/c3_sup3.jpg""]","[4,9,15,13,12,18,22,21]","[5940,6740,7542,8452,9185,10439,11795,12473]","[""select"",""select"",""select"",""select"",""select"",""select"",""select"",""select""]","[""stimuli/c3_sup4.jpg"",""stimuli/c3_sub4.jpg"",""stimuli/c3_bas3.jpg"",""stimuli/c3_sub5.jpg"",""stimuli/c3_sup6.jpg"",""stimuli/c3_sup5.jpg"",""stimuli/c3_bas4.jpg"",""stimuli/c3_sup3.jpg""]",13342,8,stimuli/c3_sup3.jpg,superordinate,animals,1,1
Beaver,p0dl5tzjk4h,16,11,195360,3-item,animals,subordinate,"[""stimuli/c3_sub4.jpg"",""stimuli/c3_sub5.jpg""]","[9,19]","[7466,8994]","[""select"",""select""]","[""stimuli/c3_sub4.jpg"",""stimuli/c3_sub5.jpg""]",10145,1,stimuli/c3_sub4.jpg,subordinate,animals,1,1
Beaver,p0dl5tzjk4h,16,11,195360,3-item,animals,subordinate,"[""stimuli/c3_sub4.jpg"",""stimuli/c3_sub5.jpg""]","[9,19]","[7466,8994]","[""select"",""select""]","[""stimuli/c3_sub4.jpg"",""stimuli/c3_sub5.jpg""]",10145,2,stimuli/c3_sub5.jpg,subordinate,animals,1,1
Beaver,p0dl5tzjk4h,17,12,200994,3-item,vegetables,subordinate,"[""stimuli/c1_sub4.jpg"",""stimuli/c1_sub5.jpg""]","[1,19]","[1740,3786]","[""select"",""select""]","[""stimuli/c1_sub4.jpg"",""stimuli/c1_sub5.jpg""]",5627,1,stimuli/c1_sub4.jpg,subordinate,vegetables,1,1
Beaver,p0dl5tzjk4h,17,12,200994,3-item,vegetables,subordinate,"[""stimuli/c1_sub4.jpg"",""stimuli/c1_sub5.jpg""]","[1,19]","[1740,3786]","[""select"",""select""]","[""stimuli/c1_sub4.jpg"",""stimuli/c1_sub5.jpg""]",5627,2,stimuli/c1_sub5.jpg,subordinate,vegetables,1,1
panda,p0go4ncrpwf,6,1,52986,1-item,vehicles,one-subordinate,"[""stimuli/c1_sup3.jpg""]",[16],[21341],"[""select""]","[""stimuli/c1_sup3.jpg""]",22392,1,stimuli/c1_sup3.jpg,superordinate,vegetables,0,0
panda,p0go4ncrpwf,7,2,66636,1-item,animals,one-subordinate,"[""stimuli/c3_sup6.jpg""]",[17],[12417],"[""select""]","[""stimuli/c3_sup6.jpg""]",13647,1,stimuli/c3_sup6.jpg,superordinate,animals,1,0
panda,p0go4ncrpwf,8,3,73824,1-item,vegetables,one-subordinate,"[""stimuli/c1_sub4.jpg"",""stimuli/c1_sub5.jpg"",""stimuli/c1_bas3.jpg"",""stimuli/c1_bas4.jpg""]","[1,2,3,19]","[3163,3601,4035,5918]","[""select"",""select"",""select"",""select""]","[""stimuli/c1_sub4.jpg"",""stimuli/c1_sub5.jpg"",""stimuli/c1_bas3.jpg"",""stimuli/c1_bas4.jpg""]",7186,1,stimuli/c1_sub4.jpg,subordinate,vegetables,1,1
panda,p0go4ncrpwf,8,3,73824,1-item,vegetables,one-subordinate,"[""stimuli/c1_sub4.jpg"",""stimuli/c1_sub5.jpg"",""stimuli/c1_bas3.jpg"",""stimuli/c1_bas4.jpg""]","[1,2,3,19]","[3163,3601,4035,5918]","[""select"",""select"",""select"",""select""]","[""stimuli/c1_sub4.jpg"",""stimuli/c1_sub5.jpg"",""stimuli/c1_bas3.jpg"",""stimuli/c1_bas4.jpg""]",7186,2,stimuli/c1_sub5.jpg,subordinate,vegetables,1,1
panda,p0go4ncrpwf,8,3,73824,1-item,vegetables,one-subordinate,"[""stimuli/c1_sub4.jpg"",""stimuli/c1_sub5.jpg"",""stimuli/c1_bas3.jpg"",""stimuli/c1_bas4.jpg""]","[1,2,3,19]","[3163,3601,4035,5918]","[""select"",""select"",""select"",""select""]","[""stimuli/c1_sub4.jpg"",""stimuli/c1_sub5.jpg"",""stimuli/c1_bas3.jpg"",""stimuli/c1_bas4.jpg""]",7186,3,stimuli/c1_bas3.jpg,basic,vegetables,1,0
panda,p0go4ncrpwf,8,3,73824,1-item,vegetables,one-subordinate,"[""stimuli/c1_sub4.jpg"",""stimuli/c1_sub5.jpg"",""stimuli/c1_bas3.jpg"",""stimuli/c1_bas4.jpg""]","[1,2,3,19]","[3163,3601,4035,5918]","[""select"",""select"",""select"",""select""]","[""stimuli/c1_sub4.jpg"",""stimuli/c1_sub5.jpg"",""stimuli/c1_bas3.jpg"",""stimuli/c1_bas4.jpg""]",7186,4,stimuli/c1_bas4.jpg,basic,vegetables,1,0
panda,p0go4ncrpwf,9,4,87323,3-item,vehicles,basic,"[""stimuli/c2_sup5.jpg"",""stimuli/c2_sup3.jpg"",""stimuli/c2_sup5.jpg"",""stimuli/c2_sup4.jpg""]","[6,7,6,15]","[4480,5798,6382,8771]","[""select"",""select"",""unselect"",""select""]","[""stimuli/c2_sup3.jpg"",""stimuli/c2_sup4.jpg""]",13495,1,stimuli/c2_sup3.jpg,superordinate,vehicles,1,0
panda,p0go4ncrpwf,9,4,87323,3-item,vehicles,basic,"[""stimuli/c2_sup5.jpg"",""stimuli/c2_sup3.jpg"",""stimuli/c2_sup5.jpg"",""stimuli/c2_sup4.jpg""]","[6,7,6,15]","[4480,5798,6382,8771]","[""select"",""select"",""unselect"",""select""]","[""stimuli/c2_sup3.jpg"",""stimuli/c2_sup4.jpg""]",13495,2,stimuli/c2_sup4.jpg,superordinate,vehicles,1,0
panda,p0go4ncrpwf,10,5,100956,3-item,vegetables,basic,"[""stimuli/c1_sup6.jpg"",""stimuli/c2_sup3.jpg"",""stimuli/c3_sup6.jpg"",""stimuli/c3_sup4.jpg"",""stimuli/c3_sup4.jpg"",""stimuli/c3_sup6.jpg"",""stimuli/c2_sup3.jpg"",""stimuli/c1_sup6.jpg"",""stimuli/c1_sup6.jpg""]","[3,2,1,0,0,1,2,3,3]","[3968,4413,4881,5247,5680,6084,7097,8864,10530]","[""select"",""select"",""select"",""select"",""unselect"",""unselect"",""unselect"",""unselect"",""select""]","[""stimuli/c1_sup6.jpg""]",13630,1,stimuli/c1_sup6.jpg,superordinate,vegetables,1,0
panda,p0go4ncrpwf,11,6,104956,3-item,vehicles,subordinate,"[""stimuli/c2_sup4.jpg""]",[12],[2798],"[""select""]","[""stimuli/c2_sup4.jpg""]",3997,1,stimuli/c2_sup4.jpg,superordinate,vehicles,1,0
panda,p0go4ncrpwf,12,7,110006,3-item,vehicles,superordinate,"[""stimuli/c3_bas3.jpg""]",[23],[3682],"[""select""]","[""stimuli/c3_bas3.jpg""]",5047,1,stimuli/c3_bas3.jpg,basic,animals,0,0
panda,p0go4ncrpwf,13,8,128243,3-item,vegetables,superordinate,"[""stimuli/c1_sup4.jpg"",""stimuli/c1_sup3.jpg"",""stimuli/c1_sub5.jpg"",""stimuli/c1_bas3.jpg"",""stimuli/c1_sub4.jpg"",""stimuli/c1_bas4.jpg"",""stimuli/c1_sup5.jpg""]","[7,0,1,3,16,20,18]","[9309,10095,11214,11979,12548,14181,17082]","[""select"",""select"",""select"",""select"",""select"",""select"",""select""]","[""stimuli/c1_sup4.jpg"",""stimuli/c1_sup3.jpg"",""stimuli/c1_sub5.jpg"",""stimuli/c1_bas3.jpg"",""stimuli/c1_sub4.jpg"",""stimuli/c1_bas4.jpg"",""stimuli/c1_sup5.jpg""]",18234,1,stimuli/c1_sup4.jpg,superordinate,vegetables,1,1
panda,p0go4ncrpwf,13,8,128243,3-item,vegetables,superordinate,"[""stimuli/c1_sup4.jpg"",""stimuli/c1_sup3.jpg"",""stimuli/c1_sub5.jpg"",""stimuli/c1_bas3.jpg"",""stimuli/c1_sub4.jpg"",""stimuli/c1_bas4.jpg"",""stimuli/c1_sup5.jpg""]","[7,0,1,3,16,20,18]","[9309,10095,11214,11979,12548,14181,17082]","[""select"",""select"",""select"",""select"",""select"",""select"",""select""]","[""stimuli/c1_sup4.jpg"",""stimuli/c1_sup3.jpg"",""stimuli/c1_sub5.jpg"",""stimuli/c1_bas3.jpg"",""stimuli/c1_sub4.jpg"",""stimuli/c1_bas4.jpg"",""stimuli/c1_sup5.jpg""]",18234,2,stimuli/c1_sup3.jpg,superordinate,vegetables,1,1
panda,p0go4ncrpwf,13,8,128243,3-item,vegetables,superordinate,"[""stimuli/c1_sup4.jpg"",""stimuli/c1_sup3.jpg"",""stimuli/c1_sub5.jpg"",""stimuli/c1_bas3.jpg"",""stimuli/c1_sub4.jpg"",""stimuli/c1_bas4.jpg"",""stimuli/c1_sup5.jpg""]","[7,0,1,3,16,20,18]","[9309,10095,11214,11979,12548,14181,17082]","[""select"",""select"",""select"",""select"",""select"",""select"",""select""]","[""stimuli/c1_sup4.jpg"",""stimuli/c1_sup3.jpg"",""stimuli/c1_sub5.jpg"",""stimuli/c1_bas3.jpg"",""stimuli/c1_sub4.jpg"",""stimuli/c1_bas4.jpg"",""stimuli/c1_sup5.jpg""]",18234,3,stimuli/c1_sub5.jpg,subordinate,vegetables,1,1
panda,p0go4ncrpwf,13,8,128243,3-item,vegetables,superordinate,"[""stimuli/c1_sup4.jpg"",""stimuli/c1_sup3.jpg"",""stimuli/c1_sub5.jpg"",""stimuli/c1_bas3.jpg"",""stimuli/c1_sub4.jpg"",""stimuli/c1_bas4.jpg"",""stimuli/c1_sup5.jpg""]","[7,0,1,3,16,20,18]","[9309,10095,11214,11979,12548,14181,17082]","[""select"",""select"",""select"",""select"",""select"",""select"",""select""]","[""stimuli/c1_sup4.jpg"",""stimuli/c1_sup3.jpg"",""stimuli/c1_sub5.jpg"",""stimuli/c1_bas3.jpg"",""stimuli/c1_sub4.jpg"",""stimuli/c1_bas4.jpg"",""stimuli/c1_sup5.jpg""]",18234,4,stimuli/c1_bas3.jpg,basic,vegetables,1,1
panda,p0go4ncrpwf,13,8,128243,3-item,vegetables,superordinate,"[""stimuli/c1_sup4.jpg"",""stimuli/c1_sup3.jpg"",""stimuli/c1_sub5.jpg"",""stimuli/c1_bas3.jpg"",""stimuli/c1_sub4.jpg"",""stimuli/c1_bas4.jpg"",""stimuli/c1_sup5.jpg""]","[7,0,1,3,16,20,18]","[9309,10095,11214,11979,12548,14181,17082]","[""select"",""select"",""select"",""select"",""select"",""select"",""select""]","[""stimuli/c1_sup4.jpg"",""stimuli/c1_sup3.jpg"",""stimuli/c1_sub5.jpg"",""stimuli/c1_bas3.jpg"",""stimuli/c1_sub4.jpg"",""stimuli/c1_bas4.jpg"",""stimuli/c1_sup5.jpg""]",18234,5,stimuli/c1_sub4.jpg,subordinate,vegetables,1,1
panda,p0go4ncrpwf,13,8,128243,3-item,vegetables,superordinate,"[""stimuli/c1_sup4.jpg"",""stimuli/c1_sup3.jpg"",""stimuli/c1_sub5.jpg"",""stimuli/c1_bas3.jpg"",""stimuli/c1_sub4.jpg"",""stimuli/c1_bas4.jpg"",""stimuli/c1_sup5.jpg""]","[7,0,1,3,16,20,18]","[9309,10095,11214,11979,12548,14181,17082]","[""select"",""select"",""select"",""select"",""select"",""select"",""select""]","[""stimuli/c1_sup4.jpg"",""stimuli/c1_sup3.jpg"",""stimuli/c1_sub5.jpg"",""stimuli/c1_bas3.jpg"",""stimuli/c1_sub4.jpg"",""stimuli/c1_bas4.jpg"",""stimuli/c1_sup5.jpg""]",18234,6,stimuli/c1_bas4.jpg,basic,vegetables,1,1
panda,p0go4ncrpwf,13,8,128243,3-item,vegetables,superordinate,"[""stimuli/c1_sup4.jpg"",""stimuli/c1_sup3.jpg"",""stimuli/c1_sub5.jpg"",""stimuli/c1_bas3.jpg"",""stimuli/c1_sub4.jpg"",""stimuli/c1_bas4.jpg"",""stimuli/c1_sup5.jpg""]","[7,0,1,3,16,20,18]","[9309,10095,11214,11979,12548,14181,17082]","[""select"",""select"",""select"",""select"",""select"",""select"",""select""]","[""stimuli/c1_sup4.jpg"",""stimuli/c1_sup3.jpg"",""stimuli/c1_sub5.jpg"",""stimuli/c1_bas3.jpg"",""stimuli/c1_sub4.jpg"",""stimuli/c1_bas4.jpg"",""stimuli/c1_sup5.jpg""]",18234,7,stimuli/c1_sup5.jpg,superordinate,vegetables,1,1
panda,p0go4ncrpwf,14,9,135406,3-item,animals,subordinate,"[""stimuli/c3_sub5.jpg"",""stimuli/c3_bas4.jpg"",""stimuli/c3_sub4.jpg"",""stimuli/c3_bas3.jpg""]","[7,14,21,4]","[2526,3709,4476,5695]","[""select"",""select"",""select"",""select""]","[""stimuli/c3_sub5.jpg"",""stimuli/c3_bas4.jpg"",""stimuli/c3_sub4.jpg"",""stimuli/c3_bas3.jpg""]",7159,1,stimuli/c3_sub5.jpg,subordinate,animals,1,1
panda,p0go4ncrpwf,14,9,135406,3-item,animals,subordinate,"[""stimuli/c3_sub5.jpg"",""stimuli/c3_bas4.jpg"",""stimuli/c3_sub4.jpg"",""stimuli/c3_bas3.jpg""]","[7,14,21,4]","[2526,3709,4476,5695]","[""select"",""select"",""select"",""select""]","[""stimuli/c3_sub5.jpg"",""stimuli/c3_bas4.jpg"",""stimuli/c3_sub4.jpg"",""stimuli/c3_bas3.jpg""]",7159,2,stimuli/c3_bas4.jpg,basic,animals,1,0
panda,p0go4ncrpwf,14,9,135406,3-item,animals,subordinate,"[""stimuli/c3_sub5.jpg"",""stimuli/c3_bas4.jpg"",""stimuli/c3_sub4.jpg"",""stimuli/c3_bas3.jpg""]","[7,14,21,4]","[2526,3709,4476,5695]","[""select"",""select"",""select"",""select""]","[""stimuli/c3_sub5.jpg"",""stimuli/c3_bas4.jpg"",""stimuli/c3_sub4.jpg"",""stimuli/c3_bas3.jpg""]",7159,3,stimuli/c3_sub4.jpg,subordinate,animals,1,1
panda,p0go4ncrpwf,14,9,135406,3-item,animals,subordinate,"[""stimuli/c3_sub5.jpg"",""stimuli/c3_bas4.jpg"",""stimuli/c3_sub4.jpg"",""stimuli/c3_bas3.jpg""]","[7,14,21,4]","[2526,3709,4476,5695]","[""select"",""select"",""select"",""select""]","[""stimuli/c3_sub5.jpg"",""stimuli/c3_bas4.jpg"",""stimuli/c3_sub4.jpg"",""stimuli/c3_bas3.jpg""]",7159,4,stimuli/c3_bas3.jpg,basic,animals,1,0
panda,p0go4ncrpwf,15,10,146500,3-item,animals,superordinate,"[""stimuli/c3_sub4.jpg"",""stimuli/c3_sup3.jpg"",""stimuli/c3_sup5.jpg"",""stimuli/c3_bas3.jpg"",""stimuli/c3_bas4.jpg"",""stimuli/c3_sup4.jpg"",""stimuli/c3_sub5.jpg"",""stimuli/c3_sup6.jpg""]","[6,8,3,4,14,12,18,22]","[6264,6815,7412,7831,8419,9380,9764,10365]","[""select"",""select"",""select"",""select"",""select"",""select"",""select"",""select""]","[""stimuli/c3_sub4.jpg"",""stimuli/c3_sup3.jpg"",""stimuli/c3_sup5.jpg"",""stimuli/c3_bas3.jpg"",""stimuli/c3_bas4.jpg"",""stimuli/c3_sup4.jpg"",""stimuli/c3_sub5.jpg"",""stimuli/c3_sup6.jpg""]",11096,1,stimuli/c3_sub4.jpg,subordinate,animals,1,1
panda,p0go4ncrpwf,15,10,146500,3-item,animals,superordinate,"[""stimuli/c3_sub4.jpg"",""stimuli/c3_sup3.jpg"",""stimuli/c3_sup5.jpg"",""stimuli/c3_bas3.jpg"",""stimuli/c3_bas4.jpg"",""stimuli/c3_sup4.jpg"",""stimuli/c3_sub5.jpg"",""stimuli/c3_sup6.jpg""]","[6,8,3,4,14,12,18,22]","[6264,6815,7412,7831,8419,9380,9764,10365]","[""select"",""select"",""select"",""select"",""select"",""select"",""select"",""select""]","[""stimuli/c3_sub4.jpg"",""stimuli/c3_sup3.jpg"",""stimuli/c3_sup5.jpg"",""stimuli/c3_bas3.jpg"",""stimuli/c3_bas4.jpg"",""stimuli/c3_sup4.jpg"",""stimuli/c3_sub5.jpg"",""stimuli/c3_sup6.jpg""]",11096,2,stimuli/c3_sup3.jpg,superordinate,animals,1,1
panda,p0go4ncrpwf,15,10,146500,3-item,animals,superordinate,"[""stimuli/c3_sub4.jpg"",""stimuli/c3_sup3.jpg"",""stimuli/c3_sup5.jpg"",""stimuli/c3_bas3.jpg"",""stimuli/c3_bas4.jpg"",""stimuli/c3_sup4.jpg"",""stimuli/c3_sub5.jpg"",""stimuli/c3_sup6.jpg""]","[6,8,3,4,14,12,18,22]","[6264,6815,7412,7831,8419,9380,9764,10365]","[""select"",""select"",""select"",""select"",""select"",""select"",""select"",""select""]","[""stimuli/c3_sub4.jpg"",""stimuli/c3_sup3.jpg"",""stimuli/c3_sup5.jpg"",""stimuli/c3_bas3.jpg"",""stimuli/c3_bas4.jpg"",""stimuli/c3_sup4.jpg"",""stimuli/c3_sub5.jpg"",""stimuli/c3_sup6.jpg""]",11096,3,stimuli/c3_sup5.jpg,superordinate,animals,1,1
panda,p0go4ncrpwf,15,10,146500,3-item,animals,superordinate,"[""stimuli/c3_sub4.jpg"",""stimuli/c3_sup3.jpg"",""stimuli/c3_sup5.jpg"",""stimuli/c3_bas3.jpg"",""stimuli/c3_bas4.jpg"",""stimuli/c3_sup4.jpg"",""stimuli/c3_sub5.jpg"",""stimuli/c3_sup6.jpg""]","[6,8,3,4,14,12,18,22]","[6264,6815,7412,7831,8419,9380,9764,10365]","[""select"",""select"",""select"",""select"",""select"",""select"",""select"",""select""]","[""stimuli/c3_sub4.jpg"",""stimuli/c3_sup3.jpg"",""stimuli/c3_sup5.jpg"",""stimuli/c3_bas3.jpg"",""stimuli/c3_bas4.jpg"",""stimuli/c3_sup4.jpg"",""stimuli/c3_sub5.jpg"",""stimuli/c3_sup6.jpg""]",11096,4,stimuli/c3_bas3.jpg,basic,animals,1,1
panda,p0go4ncrpwf,15,10,146500,3-item,animals,superordinate,"[""stimuli/c3_sub4.jpg"",""stimuli/c3_sup3.jpg"",""stimuli/c3_sup5.jpg"",""stimuli/c3_bas3.jpg"",""stimuli/c3_bas4.jpg"",""stimuli/c3_sup4.jpg"",""stimuli/c3_sub5.jpg"",""stimuli/c3_sup6.jpg""]","[6,8,3,4,14,12,18,22]","[6264,6815,7412,7831,8419,9380,9764,10365]","[""select"",""select"",""select"",""select"",""select"",""select"",""select"",""select""]","[""stimuli/c3_sub4.jpg"",""stimuli/c3_sup3.jpg"",""stimuli/c3_sup5.jpg"",""stimuli/c3_bas3.jpg"",""stimuli/c3_bas4.jpg"",""stimuli/c3_sup4.jpg"",""stimuli/c3_sub5.jpg"",""stimuli/c3_sup6.jpg""]",11096,5,stimuli/c3_bas4.jpg,basic,animals,1,1
panda,p0go4ncrpwf,15,10,146500,3-item,animals,superordinate,"[""stimuli/c3_sub4.jpg"",""stimuli/c3_sup3.jpg"",""stimuli/c3_sup5.jpg"",""stimuli/c3_bas3.jpg"",""stimuli/c3_bas4.jpg"",""stimuli/c3_sup4.jpg"",""stimuli/c3_sub5.jpg"",""stimuli/c3_sup6.jpg""]","[6,8,3,4,14,12,18,22]","[6264,6815,7412,7831,8419,9380,9764,10365]","[""select"",""select"",""select"",""select"",""select"",""select"",""select"",""select""]","[""stimuli/c3_sub4.jpg"",""stimuli/c3_sup3.jpg"",""stimuli/c3_sup5.jpg"",""stimuli/c3_bas3.jpg"",""stimuli/c3_bas4.jpg"",""stimuli/c3_sup4.jpg"",""stimuli/c3_sub5.jpg"",""stimuli/c3_sup6.jpg""]",11096,6,stimuli/c3_sup4.jpg,superordinate,animals,1,1
panda,p0go4ncrpwf,15,10,146500,3-item,animals,superordinate,"[""stimuli/c3_sub4.jpg"",""stimuli/c3_sup3.jpg"",""stimuli/c3_sup5.jpg"",""stimuli/c3_bas3.jpg"",""stimuli/c3_bas4.jpg"",""stimuli/c3_sup4.jpg"",""stimuli/c3_sub5.jpg"",""stimuli/c3_sup6.jpg""]","[6,8,3,4,14,12,18,22]","[6264,6815,7412,7831,8419,9380,9764,10365]","[""select"",""select"",""select"",""select"",""select"",""select"",""select"",""select""]","[""stimuli/c3_sub4.jpg"",""stimuli/c3_sup3.jpg"",""stimuli/c3_sup5.jpg"",""stimuli/c3_bas3.jpg"",""stimuli/c3_bas4.jpg"",""stimuli/c3_sup4.jpg"",""stimuli/c3_sub5.jpg"",""stimuli/c3_sup6.jpg""]",11096,7,stimuli/c3_sub5.jpg,subordinate,animals,1,1
panda,p0go4ncrpwf,15,10,146500,3-item,animals,superordinate,"[""stimuli/c3_sub4.jpg"",""stimuli/c3_sup3.jpg"",""stimuli/c3_sup5.jpg"",""stimuli/c3_bas3.jpg"",""stimuli/c3_bas4.jpg"",""stimuli/c3_sup4.jpg"",""stimuli/c3_sub5.jpg"",""stimuli/c3_sup6.jpg""]","[6,8,3,4,14,12,18,22]","[6264,6815,7412,7831,8419,9380,9764,10365]","[""select"",""select"",""select"",""select"",""select"",""select"",""select"",""select""]","[""stimuli/c3_sub4.jpg"",""stimuli/c3_sup3.jpg"",""stimuli/c3_sup5.jpg"",""stimuli/c3_bas3.jpg"",""stimuli/c3_bas4.jpg"",""stimuli/c3_sup4.jpg"",""stimuli/c3_sub5.jpg"",""stimuli/c3_sup6.jpg""]",11096,8,stimuli/c3_sup6.jpg,superordinate,animals,1,1
panda,p0go4ncrpwf,16,11,153097,3-item,vegetables,subordinate,"[""stimuli/c1_bas3.jpg"",""stimuli/c1_sub5.jpg"",""stimuli/c1_bas4.jpg"",""stimuli/c1_sub4.jpg""]","[7,12,5,23]","[1518,2033,4520,5214]","[""select"",""select"",""select"",""select""]","[""stimuli/c1_bas3.jpg"",""stimuli/c1_sub5.jpg"",""stimuli/c1_bas4.jpg"",""stimuli/c1_sub4.jpg""]",6597,1,stimuli/c1_bas3.jpg,basic,vegetables,1,0
panda,p0go4ncrpwf,16,11,153097,3-item,vegetables,subordinate,"[""stimuli/c1_bas3.jpg"",""stimuli/c1_sub5.jpg"",""stimuli/c1_bas4.jpg"",""stimuli/c1_sub4.jpg""]","[7,12,5,23]","[1518,2033,4520,5214]","[""select"",""select"",""select"",""select""]","[""stimuli/c1_bas3.jpg"",""stimuli/c1_sub5.jpg"",""stimuli/c1_bas4.jpg"",""stimuli/c1_sub4.jpg""]",6597,2,stimuli/c1_sub5.jpg,subordinate,vegetables,1,1
panda,p0go4ncrpwf,16,11,153097,3-item,vegetables,subordinate,"[""stimuli/c1_bas3.jpg"",""stimuli/c1_sub5.jpg"",""stimuli/c1_bas4.jpg"",""stimuli/c1_sub4.jpg""]","[7,12,5,23]","[1518,2033,4520,5214]","[""select"",""select"",""select"",""select""]","[""stimuli/c1_bas3.jpg"",""stimuli/c1_sub5.jpg"",""stimuli/c1_bas4.jpg"",""stimuli/c1_sub4.jpg""]",6597,3,stimuli/c1_bas4.jpg,basic,vegetables,1,0
panda,p0go4ncrpwf,16,11,153097,3-item,vegetables,subordinate,"[""stimuli/c1_bas3.jpg"",""stimuli/c1_sub5.jpg"",""stimuli/c1_bas4.jpg"",""stimuli/c1_sub4.jpg""]","[7,12,5,23]","[1518,2033,4520,5214]","[""select"",""select"",""select"",""select""]","[""stimuli/c1_bas3.jpg"",""stimuli/c1_sub5.jpg"",""stimuli/c1_bas4.jpg"",""stimuli/c1_sub4.jpg""]",6597,4,stimuli/c1_sub4.jpg,subordinate,vegetables,1,1
panda,p0go4ncrpwf,17,12,159993,3-item,animals,basic,"[""stimuli/c3_bas4.jpg"",""stimuli/c3_sup4.jpg"",""stimuli/c3_bas3.jpg"",""stimuli/c3_sub5.jpg"",""stimuli/c3_sub4.jpg""]","[1,0,22,19,10]","[2389,2781,5032,5583,6231]","[""select"",""select"",""select"",""select"",""select""]","[""stimuli/c3_bas4.jpg"",""stimuli/c3_sup4.jpg"",""stimuli/c3_bas3.jpg"",""stimuli/c3_sub5.jpg"",""stimuli/c3_sub4.jpg""]",6895,1,stimuli/c3_bas4.jpg,basic,animals,1,1
panda,p0go4ncrpwf,17,12,159993,3-item,animals,basic,"[""stimuli/c3_bas4.jpg"",""stimuli/c3_sup4.jpg"",""stimuli/c3_bas3.jpg"",""stimuli/c3_sub5.jpg"",""stimuli/c3_sub4.jpg""]","[1,0,22,19,10]","[2389,2781,5032,5583,6231]","[""select"",""select"",""select"",""select"",""select""]","[""stimuli/c3_bas4.jpg"",""stimuli/c3_sup4.jpg"",""stimuli/c3_bas3.jpg"",""stimuli/c3_sub5.jpg"",""stimuli/c3_sub4.jpg""]",6895,2,stimuli/c3_sup4.jpg,superordinate,animals,1,0
panda,p0go4ncrpwf,17,12,159993,3-item,animals,basic,"[""stimuli/c3_bas4.jpg"",""stimuli/c3_sup4.jpg"",""stimuli/c3_bas3.jpg"",""stimuli/c3_sub5.jpg"",""stimuli/c3_sub4.jpg""]","[1,0,22,19,10]","[2389,2781,5032,5583,6231]","[""select"",""select"",""select"",""select"",""select""]","[""stimuli/c3_bas4.jpg"",""stimuli/c3_sup4.jpg"",""stimuli/c3_bas3.jpg"",""stimuli/c3_sub5.jpg"",""stimuli/c3_sub4.jpg""]",6895,3,stimuli/c3_bas3.jpg,basic,animals,1,1
panda,p0go4ncrpwf,17,12,159993,3-item,animals,basic,"[""stimuli/c3_bas4.jpg"",""stimuli/c3_sup4.jpg"",""stimuli/c3_bas3.jpg"",""stimuli/c3_sub5.jpg"",""stimuli/c3_sub4.jpg""]","[1,0,22,19,10]","[2389,2781,5032,5583,6231]","[""select"",""select"",""select"",""select"",""select""]","[""stimuli/c3_bas4.jpg"",""stimuli/c3_sup4.jpg"",""stimuli/c3_bas3.jpg"",""stimuli/c3_sub5.jpg"",""stimuli/c3_sub4.jpg""]",6895,4,stimuli/c3_sub5.jpg,subordinate,animals,1,1
panda,p0go4ncrpwf,17,12,159993,3-item,animals,basic,"[""stimuli/c3_bas4.jpg"",""stimuli/c3_sup4.jpg"",""stimuli/c3_bas3.jpg"",""stimuli/c3_sub5.jpg"",""stimuli/c3_sub4.jpg""]","[1,0,22,19,10]","[2389,2781,5032,5583,6231]","[""select"",""select"",""select"",""select"",""select""]","[""stimuli/c3_bas4.jpg"",""stimuli/c3_sup4.jpg"",""stimuli/c3_bas3.jpg"",""stimuli/c3_sub5.jpg"",""stimuli/c3_sub4.jpg""]",6895,5,stimuli/c3_sub4.jpg,subordinate,animals,1,1
otter,p0tm9mgvowx,6,1,48444,1-item,vehicles,one-subordinate,"[""stimuli/c2_sub4.jpg"",""stimuli/c2_sub5.jpg"",""stimuli/c2_bas4.jpg""]","[2,16,21]","[14545,15339,16505]","[""select"",""select"",""select""]","[""stimuli/c2_sub4.jpg"",""stimuli/c2_sub5.jpg"",""stimuli/c2_bas4.jpg""]",18655,1,stimuli/c2_sub4.jpg,subordinate,vehicles,1,1
otter,p0tm9mgvowx,6,1,48444,1-item,vehicles,one-subordinate,"[""stimuli/c2_sub4.jpg"",""stimuli/c2_sub5.jpg"",""stimuli/c2_bas4.jpg""]","[2,16,21]","[14545,15339,16505]","[""select"",""select"",""select""]","[""stimuli/c2_sub4.jpg"",""stimuli/c2_sub5.jpg"",""stimuli/c2_bas4.jpg""]",18655,2,stimuli/c2_sub5.jpg,subordinate,vehicles,1,1
otter,p0tm9mgvowx,6,1,48444,1-item,vehicles,one-subordinate,"[""stimuli/c2_sub4.jpg"",""stimuli/c2_sub5.jpg"",""stimuli/c2_bas4.jpg""]","[2,16,21]","[14545,15339,16505]","[""select"",""select"",""select""]","[""stimuli/c2_sub4.jpg"",""stimuli/c2_sub5.jpg"",""stimuli/c2_bas4.jpg""]",18655,3,stimuli/c2_bas4.jpg,basic,vehicles,1,0
otter,p0tm9mgvowx,7,2,55412,1-item,vegetables,one-subordinate,"[""stimuli/c1_sub4.jpg"",""stimuli/c1_bas3.jpg"",""stimuli/c1_sub5.jpg"",""stimuli/c1_sub5.jpg""]","[0,13,20,20]","[2680,4481,5498,5631]","[""select"",""select"",""select"",""unselect""]","[""stimuli/c1_sub4.jpg"",""stimuli/c1_bas3.jpg""]",6965,1,stimuli/c1_sub4.jpg,subordinate,vegetables,1,1
otter,p0tm9mgvowx,7,2,55412,1-item,vegetables,one-subordinate,"[""stimuli/c1_sub4.jpg"",""stimuli/c1_bas3.jpg"",""stimuli/c1_sub5.jpg"",""stimuli/c1_sub5.jpg""]","[0,13,20,20]","[2680,4481,5498,5631]","[""select"",""select"",""select"",""unselect""]","[""stimuli/c1_sub4.jpg"",""stimuli/c1_bas3.jpg""]",6965,2,stimuli/c1_bas3.jpg,basic,vegetables,1,0
otter,p0tm9mgvowx,8,3,64194,1-item,animals,one-subordinate,"[""stimuli/c3_sub5.jpg"",""stimuli/c3_sub4.jpg""]","[23,18]","[6445,7332]","[""select"",""select""]","[""stimuli/c3_sub5.jpg"",""stimuli/c3_sub4.jpg""]",8778,1,stimuli/c3_sub5.jpg,subordinate,animals,1,1
otter,p0tm9mgvowx,8,3,64194,1-item,animals,one-subordinate,"[""stimuli/c3_sub5.jpg"",""stimuli/c3_sub4.jpg""]","[23,18]","[6445,7332]","[""select"",""select""]","[""stimuli/c3_sub5.jpg"",""stimuli/c3_sub4.jpg""]",8778,2,stimuli/c3_sub4.jpg,subordinate,animals,1,1
otter,p0tm9mgvowx,9,4,73530,3-item,animals,subordinate,"[""stimuli/c3_sub4.jpg"",""stimuli/c3_sub5.jpg""]","[6,4]","[3913,8267]","[""select"",""select""]","[""stimuli/c3_sub4.jpg"",""stimuli/c3_sub5.jpg""]",9331,1,stimuli/c3_sub4.jpg,subordinate,animals,1,1
otter,p0tm9mgvowx,9,4,73530,3-item,animals,subordinate,"[""stimuli/c3_sub4.jpg"",""stimuli/c3_sub5.jpg""]","[6,4]","[3913,8267]","[""select"",""select""]","[""stimuli/c3_sub4.jpg"",""stimuli/c3_sub5.jpg""]",9331,2,stimuli/c3_sub5.jpg,subordinate,animals,1,1
otter,p0tm9mgvowx,10,5,79916,3-item,vehicles,subordinate,"[""stimuli/c2_sub4.jpg"",""stimuli/c2_sub5.jpg""]","[0,12]","[3465,4864]","[""select"",""select""]","[""stimuli/c2_sub4.jpg"",""stimuli/c2_sub5.jpg""]",6382,1,stimuli/c2_sub4.jpg,subordinate,vehicles,1,1
otter,p0tm9mgvowx,10,5,79916,3-item,vehicles,subordinate,"[""stimuli/c2_sub4.jpg"",""stimuli/c2_sub5.jpg""]","[0,12]","[3465,4864]","[""select"",""select""]","[""stimuli/c2_sub4.jpg"",""stimuli/c2_sub5.jpg""]",6382,2,stimuli/c2_sub5.jpg,subordinate,vehicles,1,1
otter,p0tm9mgvowx,11,6,85295,3-item,animals,superordinate,"[""stimuli/c3_sub5.jpg"",""stimuli/c3_sub4.jpg""]","[15,3]","[2547,3429]","[""select"",""select""]","[""stimuli/c3_sub5.jpg"",""stimuli/c3_sub4.jpg""]",5376,1,stimuli/c3_sub5.jpg,subordinate,animals,1,1
otter,p0tm9mgvowx,11,6,85295,3-item,animals,superordinate,"[""stimuli/c3_sub5.jpg"",""stimuli/c3_sub4.jpg""]","[15,3]","[2547,3429]","[""select"",""select""]","[""stimuli/c3_sub5.jpg"",""stimuli/c3_sub4.jpg""]",5376,2,stimuli/c3_sub4.jpg,subordinate,animals,1,1
otter,p0tm9mgvowx,12,7,99878,3-item,vehicles,superordinate,"[""stimuli/c2_bas3.jpg"",""stimuli/c2_sub4.jpg"",""stimuli/c2_bas4.jpg"",""stimuli/c2_sub5.jpg""]","[1,6,5,21]","[4465,5311,6696,8449]","[""select"",""select"",""select"",""select""]","[""stimuli/c2_bas3.jpg"",""stimuli/c2_sub4.jpg"",""stimuli/c2_bas4.jpg"",""stimuli/c2_sub5.jpg""]",14578,1,stimuli/c2_bas3.jpg,basic,vehicles,1,1
otter,p0tm9mgvowx,12,7,99878,3-item,vehicles,superordinate,"[""stimuli/c2_bas3.jpg"",""stimuli/c2_sub4.jpg"",""stimuli/c2_bas4.jpg"",""stimuli/c2_sub5.jpg""]","[1,6,5,21]","[4465,5311,6696,8449]","[""select"",""select"",""select"",""select""]","[""stimuli/c2_bas3.jpg"",""stimuli/c2_sub4.jpg"",""stimuli/c2_bas4.jpg"",""stimuli/c2_sub5.jpg""]",14578,2,stimuli/c2_sub4.jpg,subordinate,vehicles,1,1
otter,p0tm9mgvowx,12,7,99878,3-item,vehicles,superordinate,"[""stimuli/c2_bas3.jpg"",""stimuli/c2_sub4.jpg"",""stimuli/c2_bas4.jpg"",""stimuli/c2_sub5.jpg""]","[1,6,5,21]","[4465,5311,6696,8449]","[""select"",""select"",""select"",""select""]","[""stimuli/c2_bas3.jpg"",""stimuli/c2_sub4.jpg"",""stimuli/c2_bas4.jpg"",""stimuli/c2_sub5.jpg""]",14578,3,stimuli/c2_bas4.jpg,basic,vehicles,1,1
otter,p0tm9mgvowx,12,7,99878,3-item,vehicles,superordinate,"[""stimuli/c2_bas3.jpg"",""stimuli/c2_sub4.jpg"",""stimuli/c2_bas4.jpg"",""stimuli/c2_sub5.jpg""]","[1,6,5,21]","[4465,5311,6696,8449]","[""select"",""select"",""select"",""select""]","[""stimuli/c2_bas3.jpg"",""stimuli/c2_sub4.jpg"",""stimuli/c2_bas4.jpg"",""stimuli/c2_sub5.jpg""]",14578,4,stimuli/c2_sub5.jpg,subordinate,vehicles,1,1
otter,p0tm9mgvowx,13,8,108461,3-item,vegetables,basic,"[""stimuli/c1_sub5.jpg"",""stimuli/c1_sub4.jpg"",""stimuli/c1_bas4.jpg"",""stimuli/c1_bas3.jpg""]","[2,1,14,16]","[2164,2746,4426,5532]","[""select"",""select"",""select"",""select""]","[""stimuli/c1_sub5.jpg"",""stimuli/c1_sub4.jpg"",""stimuli/c1_bas4.jpg"",""stimuli/c1_bas3.jpg""]",8576,1,stimuli/c1_sub5.jpg,subordinate,vegetables,1,1
otter,p0tm9mgvowx,13,8,108461,3-item,vegetables,basic,"[""stimuli/c1_sub5.jpg"",""stimuli/c1_sub4.jpg"",""stimuli/c1_bas4.jpg"",""stimuli/c1_bas3.jpg""]","[2,1,14,16]","[2164,2746,4426,5532]","[""select"",""select"",""select"",""select""]","[""stimuli/c1_sub5.jpg"",""stimuli/c1_sub4.jpg"",""stimuli/c1_bas4.jpg"",""stimuli/c1_bas3.jpg""]",8576,2,stimuli/c1_sub4.jpg,subordinate,vegetables,1,1
otter,p0tm9mgvowx,13,8,108461,3-item,vegetables,basic,"[""stimuli/c1_sub5.jpg"",""stimuli/c1_sub4.jpg"",""stimuli/c1_bas4.jpg"",""stimuli/c1_bas3.jpg""]","[2,1,14,16]","[2164,2746,4426,5532]","[""select"",""select"",""select"",""select""]","[""stimuli/c1_sub5.jpg"",""stimuli/c1_sub4.jpg"",""stimuli/c1_bas4.jpg"",""stimuli/c1_bas3.jpg""]",8576,3,stimuli/c1_bas4.jpg,basic,vegetables,1,1
otter,p0tm9mgvowx,13,8,108461,3-item,vegetables,basic,"[""stimuli/c1_sub5.jpg"",""stimuli/c1_sub4.jpg"",""stimuli/c1_bas4.jpg"",""stimuli/c1_bas3.jpg""]","[2,1,14,16]","[2164,2746,4426,5532]","[""select"",""select"",""select"",""select""]","[""stimuli/c1_sub5.jpg"",""stimuli/c1_sub4.jpg"",""stimuli/c1_bas4.jpg"",""stimuli/c1_bas3.jpg""]",8576,4,stimuli/c1_bas3.jpg,basic,vegetables,1,1
otter,p0tm9mgvowx,14,9,120112,3-item,vegetables,superordinate,"[""stimuli/c1_sub5.jpg"",""stimuli/c1_sub4.jpg"",""stimuli/c1_sup5.jpg""]","[2,13,17]","[2547,3483,6500]","[""select"",""select"",""select""]","[""stimuli/c1_sub5.jpg"",""stimuli/c1_sub4.jpg"",""stimuli/c1_sup5.jpg""]",11648,1,stimuli/c1_sub5.jpg,subordinate,vegetables,1,1
otter,p0tm9mgvowx,14,9,120112,3-item,vegetables,superordinate,"[""stimuli/c1_sub5.jpg"",""stimuli/c1_sub4.jpg"",""stimuli/c1_sup5.jpg""]","[2,13,17]","[2547,3483,6500]","[""select"",""select"",""select""]","[""stimuli/c1_sub5.jpg"",""stimuli/c1_sub4.jpg"",""stimuli/c1_sup5.jpg""]",11648,2,stimuli/c1_sub4.jpg,subordinate,vegetables,1,1
otter,p0tm9mgvowx,14,9,120112,3-item,vegetables,superordinate,"[""stimuli/c1_sub5.jpg"",""stimuli/c1_sub4.jpg"",""stimuli/c1_sup5.jpg""]","[2,13,17]","[2547,3483,6500]","[""select"",""select"",""select""]","[""stimuli/c1_sub5.jpg"",""stimuli/c1_sub4.jpg"",""stimuli/c1_sup5.jpg""]",11648,3,stimuli/c1_sup5.jpg,superordinate,vegetables,1,1
otter,p0tm9mgvowx,15,10,134511,3-item,animals,basic,"[""stimuli/c3_sub5.jpg"",""stimuli/c3_sub4.jpg""]","[0,19]","[3526,6996]","[""select"",""select""]","[""stimuli/c3_sub5.jpg"",""stimuli/c3_sub4.jpg""]",14395,1,stimuli/c3_sub5.jpg,subordinate,animals,1,1
otter,p0tm9mgvowx,15,10,134511,3-item,animals,basic,"[""stimuli/c3_sub5.jpg"",""stimuli/c3_sub4.jpg""]","[0,19]","[3526,6996]","[""select"",""select""]","[""stimuli/c3_sub5.jpg"",""stimuli/c3_sub4.jpg""]",14395,2,stimuli/c3_sub4.jpg,subordinate,animals,1,1
otter,p0tm9mgvowx,16,11,139498,3-item,vegetables,subordinate,"[""stimuli/c1_sub4.jpg"",""stimuli/c1_sub5.jpg""]","[7,22]","[1979,3467]","[""select"",""select""]","[""stimuli/c1_sub4.jpg"",""stimuli/c1_sub5.jpg""]",4984,1,stimuli/c1_sub4.jpg,subordinate,vegetables,1,1
otter,p0tm9mgvowx,16,11,139498,3-item,vegetables,subordinate,"[""stimuli/c1_sub4.jpg"",""stimuli/c1_sub5.jpg""]","[7,22]","[1979,3467]","[""select"",""select""]","[""stimuli/c1_sub4.jpg"",""stimuli/c1_sub5.jpg""]",4984,2,stimuli/c1_sub5.jpg,subordinate,vegetables,1,1
otter,p0tm9mgvowx,17,12,156461,3-item,vehicles,basic,"[""stimuli/c2_bas4.jpg"",""stimuli/c2_bas4.jpg"",""stimuli/c2_sub4.jpg"",""stimuli/c2_sub5.jpg""]","[20,20,22,9]","[10361,12976,13797,14546]","[""select"",""unselect"",""select"",""select""]","[""stimuli/c2_sub4.jpg"",""stimuli/c2_sub5.jpg""]",16961,1,stimuli/c2_sub4.jpg,subordinate,vehicles,1,1
otter,p0tm9mgvowx,17,12,156461,3-item,vehicles,basic,"[""stimuli/c2_bas4.jpg"",""stimuli/c2_bas4.jpg"",""stimuli/c2_sub4.jpg"",""stimuli/c2_sub5.jpg""]","[20,20,22,9]","[10361,12976,13797,14546]","[""select"",""unselect"",""select"",""select""]","[""stimuli/c2_sub4.jpg"",""stimuli/c2_sub5.jpg""]",16961,2,stimuli/c2_sub5.jpg,subordinate,vehicles,1,1
shark,p10j4aq34cj,6,1,57915,1-item,vehicles,one-subordinate,"[""stimuli/c2_sub4.jpg"",""stimuli/c2_sub5.jpg"",""stimuli/c2_bas3.jpg"",""stimuli/c2_bas4.jpg""]","[16,19,9,1]","[14474,15012,15448,15970]","[""select"",""select"",""select"",""select""]","[""stimuli/c2_sub4.jpg"",""stimuli/c2_sub5.jpg"",""stimuli/c2_bas3.jpg"",""stimuli/c2_bas4.jpg""]",16684,1,stimuli/c2_sub4.jpg,subordinate,vehicles,1,1
shark,p10j4aq34cj,6,1,57915,1-item,vehicles,one-subordinate,"[""stimuli/c2_sub4.jpg"",""stimuli/c2_sub5.jpg"",""stimuli/c2_bas3.jpg"",""stimuli/c2_bas4.jpg""]","[16,19,9,1]","[14474,15012,15448,15970]","[""select"",""select"",""select"",""select""]","[""stimuli/c2_sub4.jpg"",""stimuli/c2_sub5.jpg"",""stimuli/c2_bas3.jpg"",""stimuli/c2_bas4.jpg""]",16684,2,stimuli/c2_sub5.jpg,subordinate,vehicles,1,1
shark,p10j4aq34cj,6,1,57915,1-item,vehicles,one-subordinate,"[""stimuli/c2_sub4.jpg"",""stimuli/c2_sub5.jpg"",""stimuli/c2_bas3.jpg"",""stimuli/c2_bas4.jpg""]","[16,19,9,1]","[14474,15012,15448,15970]","[""select"",""select"",""select"",""select""]","[""stimuli/c2_sub4.jpg"",""stimuli/c2_sub5.jpg"",""stimuli/c2_bas3.jpg"",""stimuli/c2_bas4.jpg""]",16684,3,stimuli/c2_bas3.jpg,basic,vehicles,1,0
shark,p10j4aq34cj,6,1,57915,1-item,vehicles,one-subordinate,"[""stimuli/c2_sub4.jpg"",""stimuli/c2_sub5.jpg"",""stimuli/c2_bas3.jpg"",""stimuli/c2_bas4.jpg""]","[16,19,9,1]","[14474,15012,15448,15970]","[""select"",""select"",""select"",""select""]","[""stimuli/c2_sub4.jpg"",""stimuli/c2_sub5.jpg"",""stimuli/c2_bas3.jpg"",""stimuli/c2_bas4.jpg""]",16684,4,stimuli/c2_bas4.jpg,basic,vehicles,1,0
shark,p10j4aq34cj,7,2,65802,1-item,animals,one-subordinate,"[""stimuli/c3_bas3.jpg"",""stimuli/c3_bas4.jpg"",""stimuli/c3_sub4.jpg"",""stimuli/c3_sub5.jpg""]","[0,6,9,22]","[3584,3848,4463,5731]","[""select"",""select"",""select"",""select""]","[""stimuli/c3_bas3.jpg"",""stimuli/c3_bas4.jpg"",""stimuli/c3_sub4.jpg"",""stimuli/c3_sub5.jpg""]",7885,1,stimuli/c3_bas3.jpg,basic,animals,1,0
shark,p10j4aq34cj,7,2,65802,1-item,animals,one-subordinate,"[""stimuli/c3_bas3.jpg"",""stimuli/c3_bas4.jpg"",""stimuli/c3_sub4.jpg"",""stimuli/c3_sub5.jpg""]","[0,6,9,22]","[3584,3848,4463,5731]","[""select"",""select"",""select"",""select""]","[""stimuli/c3_bas3.jpg"",""stimuli/c3_bas4.jpg"",""stimuli/c3_sub4.jpg"",""stimuli/c3_sub5.jpg""]",7885,2,stimuli/c3_bas4.jpg,basic,animals,1,0
shark,p10j4aq34cj,7,2,65802,1-item,animals,one-subordinate,"[""stimuli/c3_bas3.jpg"",""stimuli/c3_bas4.jpg"",""stimuli/c3_sub4.jpg"",""stimuli/c3_sub5.jpg""]","[0,6,9,22]","[3584,3848,4463,5731]","[""select"",""select"",""select"",""select""]","[""stimuli/c3_bas3.jpg"",""stimuli/c3_bas4.jpg"",""stimuli/c3_sub4.jpg"",""stimuli/c3_sub5.jpg""]",7885,3,stimuli/c3_sub4.jpg,subordinate,animals,1,1
shark,p10j4aq34cj,7,2,65802,1-item,animals,one-subordinate,"[""stimuli/c3_bas3.jpg"",""stimuli/c3_bas4.jpg"",""stimuli/c3_sub4.jpg"",""stimuli/c3_sub5.jpg""]","[0,6,9,22]","[3584,3848,4463,5731]","[""select"",""select"",""select"",""select""]","[""stimuli/c3_bas3.jpg"",""stimuli/c3_bas4.jpg"",""stimuli/c3_sub4.jpg"",""stimuli/c3_sub5.jpg""]",7885,4,stimuli/c3_sub5.jpg,subordinate,animals,1,1
shark,p10j4aq34cj,8,3,83176,1-item,vegetables,one-subordinate,"[""stimuli/c1_sub4.jpg"",""stimuli/c1_sub5.jpg"",""stimuli/c1_bas3.jpg"",""stimuli/c1_bas4.jpg""]","[4,6,12,22]","[1469,2290,2523,3161]","[""select"",""select"",""select"",""select""]","[""stimuli/c1_sub4.jpg"",""stimuli/c1_sub5.jpg"",""stimuli/c1_bas3.jpg"",""stimuli/c1_bas4.jpg""]",17372,1,stimuli/c1_sub4.jpg,subordinate,vegetables,1,1
shark,p10j4aq34cj,8,3,83176,1-item,vegetables,one-subordinate,"[""stimuli/c1_sub4.jpg"",""stimuli/c1_sub5.jpg"",""stimuli/c1_bas3.jpg"",""stimuli/c1_bas4.jpg""]","[4,6,12,22]","[1469,2290,2523,3161]","[""select"",""select"",""select"",""select""]","[""stimuli/c1_sub4.jpg"",""stimuli/c1_sub5.jpg"",""stimuli/c1_bas3.jpg"",""stimuli/c1_bas4.jpg""]",17372,2,stimuli/c1_sub5.jpg,subordinate,vegetables,1,1
shark,p10j4aq34cj,8,3,83176,1-item,vegetables,one-subordinate,"[""stimuli/c1_sub4.jpg"",""stimuli/c1_sub5.jpg"",""stimuli/c1_bas3.jpg"",""stimuli/c1_bas4.jpg""]","[4,6,12,22]","[1469,2290,2523,3161]","[""select"",""select"",""select"",""select""]","[""stimuli/c1_sub4.jpg"",""stimuli/c1_sub5.jpg"",""stimuli/c1_bas3.jpg"",""stimuli/c1_bas4.jpg""]",17372,3,stimuli/c1_bas3.jpg,basic,vegetables,1,0
shark,p10j4aq34cj,8,3,83176,1-item,vegetables,one-subordinate,"[""stimuli/c1_sub4.jpg"",""stimuli/c1_sub5.jpg"",""stimuli/c1_bas3.jpg"",""stimuli/c1_bas4.jpg""]","[4,6,12,22]","[1469,2290,2523,3161]","[""select"",""select"",""select"",""select""]","[""stimuli/c1_sub4.jpg"",""stimuli/c1_sub5.jpg"",""stimuli/c1_bas3.jpg"",""stimuli/c1_bas4.jpg""]",17372,4,stimuli/c1_bas4.jpg,basic,vegetables,1,0
shark,p10j4aq34cj,9,4,96881,3-item,vegetables,superordinate,"[""stimuli/c1_sup4.jpg"",""stimuli/c1_sup6.jpg"",""stimuli/c1_bas4.jpg"",""stimuli/c1_sub4.jpg"",""stimuli/c1_sub5.jpg"",""stimuli/c1_bas3.jpg"",""stimuli/c1_sup3.jpg""]","[1,4,17,16,15,21,14]","[4864,5601,7345,7560,7786,8071,8401]","[""select"",""select"",""select"",""select"",""select"",""select"",""select""]","[""stimuli/c1_sup4.jpg"",""stimuli/c1_sup6.jpg"",""stimuli/c1_bas4.jpg"",""stimuli/c1_sub4.jpg"",""stimuli/c1_sub5.jpg"",""stimuli/c1_bas3.jpg"",""stimuli/c1_sup3.jpg""]",13702,1,stimuli/c1_sup4.jpg,superordinate,vegetables,1,1
shark,p10j4aq34cj,9,4,96881,3-item,vegetables,superordinate,"[""stimuli/c1_sup4.jpg"",""stimuli/c1_sup6.jpg"",""stimuli/c1_bas4.jpg"",""stimuli/c1_sub4.jpg"",""stimuli/c1_sub5.jpg"",""stimuli/c1_bas3.jpg"",""stimuli/c1_sup3.jpg""]","[1,4,17,16,15,21,14]","[4864,5601,7345,7560,7786,8071,8401]","[""select"",""select"",""select"",""select"",""select"",""select"",""select""]","[""stimuli/c1_sup4.jpg"",""stimuli/c1_sup6.jpg"",""stimuli/c1_bas4.jpg"",""stimuli/c1_sub4.jpg"",""stimuli/c1_sub5.jpg"",""stimuli/c1_bas3.jpg"",""stimuli/c1_sup3.jpg""]",13702,2,stimuli/c1_sup6.jpg,superordinate,vegetables,1,1
shark,p10j4aq34cj,9,4,96881,3-item,vegetables,superordinate,"[""stimuli/c1_sup4.jpg"",""stimuli/c1_sup6.jpg"",""stimuli/c1_bas4.jpg"",""stimuli/c1_sub4.jpg"",""stimuli/c1_sub5.jpg"",""stimuli/c1_bas3.jpg"",""stimuli/c1_sup3.jpg""]","[1,4,17,16,15,21,14]","[4864,5601,7345,7560,7786,8071,8401]","[""select"",""select"",""select"",""select"",""select"",""select"",""select""]","[""stimuli/c1_sup4.jpg"",""stimuli/c1_sup6.jpg"",""stimuli/c1_bas4.jpg"",""stimuli/c1_sub4.jpg"",""stimuli/c1_sub5.jpg"",""stimuli/c1_bas3.jpg"",""stimuli/c1_sup3.jpg""]",13702,3,stimuli/c1_bas4.jpg,basic,vegetables,1,1
shark,p10j4aq34cj,9,4,96881,3-item,vegetables,superordinate,"[""stimuli/c1_sup4.jpg"",""stimuli/c1_sup6.jpg"",""stimuli/c1_bas4.jpg"",""stimuli/c1_sub4.jpg"",""stimuli/c1_sub5.jpg"",""stimuli/c1_bas3.jpg"",""stimuli/c1_sup3.jpg""]","[1,4,17,16,15,21,14]","[4864,5601,7345,7560,7786,8071,8401]","[""select"",""select"",""select"",""select"",""select"",""select"",""select""]","[""stimuli/c1_sup4.jpg"",""stimuli/c1_sup6.jpg"",""stimuli/c1_bas4.jpg"",""stimuli/c1_sub4.jpg"",""stimuli/c1_sub5.jpg"",""stimuli/c1_bas3.jpg"",""stimuli/c1_sup3.jpg""]",13702,4,stimuli/c1_sub4.jpg,subordinate,vegetables,1,1
shark,p10j4aq34cj,9,4,96881,3-item,vegetables,superordinate,"[""stimuli/c1_sup4.jpg"",""stimuli/c1_sup6.jpg"",""stimuli/c1_bas4.jpg"",""stimuli/c1_sub4.jpg"",""stimuli/c1_sub5.jpg"",""stimuli/c1_bas3.jpg"",""stimuli/c1_sup3.jpg""]","[1,4,17,16,15,21,14]","[4864,5601,7345,7560,7786,8071,8401]","[""select"",""select"",""select"",""select"",""select"",""select"",""select""]","[""stimuli/c1_sup4.jpg"",""stimuli/c1_sup6.jpg"",""stimuli/c1_bas4.jpg"",""stimuli/c1_sub4.jpg"",""stimuli/c1_sub5.jpg"",""stimuli/c1_bas3.jpg"",""stimuli/c1_sup3.jpg""]",13702,5,stimuli/c1_sub5.jpg,subordinate,vegetables,1,1
shark,p10j4aq34cj,9,4,96881,3-item,vegetables,superordinate,"[""stimuli/c1_sup4.jpg"",""stimuli/c1_sup6.jpg"",""stimuli/c1_bas4.jpg"",""stimuli/c1_sub4.jpg"",""stimuli/c1_sub5.jpg"",""stimuli/c1_bas3.jpg"",""stimuli/c1_sup3.jpg""]","[1,4,17,16,15,21,14]","[4864,5601,7345,7560,7786,8071,8401]","[""select"",""select"",""select"",""select"",""select"",""select"",""select""]","[""stimuli/c1_sup4.jpg"",""stimuli/c1_sup6.jpg"",""stimuli/c1_bas4.jpg"",""stimuli/c1_sub4.jpg"",""stimuli/c1_sub5.jpg"",""stimuli/c1_bas3.jpg"",""stimuli/c1_sup3.jpg""]",13702,6,stimuli/c1_bas3.jpg,basic,vegetables,1,1
shark,p10j4aq34cj,9,4,96881,3-item,vegetables,superordinate,"[""stimuli/c1_sup4.jpg"",""stimuli/c1_sup6.jpg"",""stimuli/c1_bas4.jpg"",""stimuli/c1_sub4.jpg"",""stimuli/c1_sub5.jpg"",""stimuli/c1_bas3.jpg"",""stimuli/c1_sup3.jpg""]","[1,4,17,16,15,21,14]","[4864,5601,7345,7560,7786,8071,8401]","[""select"",""select"",""select"",""select"",""select"",""select"",""select""]","[""stimuli/c1_sup4.jpg"",""stimuli/c1_sup6.jpg"",""stimuli/c1_bas4.jpg"",""stimuli/c1_sub4.jpg"",""stimuli/c1_sub5.jpg"",""stimuli/c1_bas3.jpg"",""stimuli/c1_sup3.jpg""]",13702,7,stimuli/c1_sup3.jpg,superordinate,vegetables,1,1
shark,p10j4aq34cj,10,5,104261,3-item,vegetables,basic,"[""stimuli/c1_sub4.jpg"",""stimuli/c1_sub5.jpg"",""stimuli/c1_bas3.jpg"",""stimuli/c1_bas4.jpg""]","[4,5,9,17]","[4159,4778,5221,6168]","[""select"",""select"",""select"",""select""]","[""stimuli/c1_sub4.jpg"",""stimuli/c1_sub5.jpg"",""stimuli/c1_bas3.jpg"",""stimuli/c1_bas4.jpg""]",7378,1,stimuli/c1_sub4.jpg,subordinate,vegetables,1,1
shark,p10j4aq34cj,10,5,104261,3-item,vegetables,basic,"[""stimuli/c1_sub4.jpg"",""stimuli/c1_sub5.jpg"",""stimuli/c1_bas3.jpg"",""stimuli/c1_bas4.jpg""]","[4,5,9,17]","[4159,4778,5221,6168]","[""select"",""select"",""select"",""select""]","[""stimuli/c1_sub4.jpg"",""stimuli/c1_sub5.jpg"",""stimuli/c1_bas3.jpg"",""stimuli/c1_bas4.jpg""]",7378,2,stimuli/c1_sub5.jpg,subordinate,vegetables,1,1
shark,p10j4aq34cj,10,5,104261,3-item,vegetables,basic,"[""stimuli/c1_sub4.jpg"",""stimuli/c1_sub5.jpg"",""stimuli/c1_bas3.jpg"",""stimuli/c1_bas4.jpg""]","[4,5,9,17]","[4159,4778,5221,6168]","[""select"",""select"",""select"",""select""]","[""stimuli/c1_sub4.jpg"",""stimuli/c1_sub5.jpg"",""stimuli/c1_bas3.jpg"",""stimuli/c1_bas4.jpg""]",7378,3,stimuli/c1_bas3.jpg,basic,vegetables,1,1
shark,p10j4aq34cj,10,5,104261,3-item,vegetables,basic,"[""stimuli/c1_sub4.jpg"",""stimuli/c1_sub5.jpg"",""stimuli/c1_bas3.jpg"",""stimuli/c1_bas4.jpg""]","[4,5,9,17]","[4159,4778,5221,6168]","[""select"",""select"",""select"",""select""]","[""stimuli/c1_sub4.jpg"",""stimuli/c1_sub5.jpg"",""stimuli/c1_bas3.jpg"",""stimuli/c1_bas4.jpg""]",7378,4,stimuli/c1_bas4.jpg,basic,vegetables,1,1
shark,p10j4aq34cj,11,6,112266,3-item,vegetables,subordinate,"[""stimuli/c1_sub5.jpg"",""stimuli/c1_sub4.jpg""]","[13,17]","[3008,3687]","[""select"",""select""]","[""stimuli/c1_sub5.jpg"",""stimuli/c1_sub4.jpg""]",8002,1,stimuli/c1_sub5.jpg,subordinate,vegetables,1,1
shark,p10j4aq34cj,11,6,112266,3-item,vegetables,subordinate,"[""stimuli/c1_sub5.jpg"",""stimuli/c1_sub4.jpg""]","[13,17]","[3008,3687]","[""select"",""select""]","[""stimuli/c1_sub5.jpg"",""stimuli/c1_sub4.jpg""]",8002,2,stimuli/c1_sub4.jpg,subordinate,vegetables,1,1
shark,p10j4aq34cj,12,7,132148,3-item,vehicles,basic,"[""stimuli/c2_bas3.jpg"",""stimuli/c2_sub4.jpg"",""stimuli/c2_bas4.jpg"",""stimuli/c2_sub4.jpg"",""stimuli/c2_sub4.jpg"",""stimuli/c2_sub4.jpg"",""stimuli/c2_sub4.jpg"",""stimuli/c2_sub4.jpg"",""stimuli/c3_sup5.jpg"",""stimuli/c3_sup5.jpg"",""stimuli/c2_sub4.jpg"",""stimuli/c2_sub5.jpg""]","[5,9,14,9,9,9,9,9,10,10,9,23]","[2356,3256,3942,5366,6925,9044,9734,11298,11664,12318,13199,17125]","[""select"",""select"",""select"",""unselect"",""select"",""unselect"",""select"",""unselect"",""select"",""unselect"",""select"",""select""]","[""stimuli/c2_bas3.jpg"",""stimuli/c2_bas4.jpg"",""stimuli/c2_sub4.jpg"",""stimuli/c2_sub5.jpg""]",19880,1,stimuli/c2_bas3.jpg,basic,vehicles,1,1
shark,p10j4aq34cj,12,7,132148,3-item,vehicles,basic,"[""stimuli/c2_bas3.jpg"",""stimuli/c2_sub4.jpg"",""stimuli/c2_bas4.jpg"",""stimuli/c2_sub4.jpg"",""stimuli/c2_sub4.jpg"",""stimuli/c2_sub4.jpg"",""stimuli/c2_sub4.jpg"",""stimuli/c2_sub4.jpg"",""stimuli/c3_sup5.jpg"",""stimuli/c3_sup5.jpg"",""stimuli/c2_sub4.jpg"",""stimuli/c2_sub5.jpg""]","[5,9,14,9,9,9,9,9,10,10,9,23]","[2356,3256,3942,5366,6925,9044,9734,11298,11664,12318,13199,17125]","[""select"",""select"",""select"",""unselect"",""select"",""unselect"",""select"",""unselect"",""select"",""unselect"",""select"",""select""]","[""stimuli/c2_bas3.jpg"",""stimuli/c2_bas4.jpg"",""stimuli/c2_sub4.jpg"",""stimuli/c2_sub5.jpg""]",19880,2,stimuli/c2_bas4.jpg,basic,vehicles,1,1
shark,p10j4aq34cj,12,7,132148,3-item,vehicles,basic,"[""stimuli/c2_bas3.jpg"",""stimuli/c2_sub4.jpg"",""stimuli/c2_bas4.jpg"",""stimuli/c2_sub4.jpg"",""stimuli/c2_sub4.jpg"",""stimuli/c2_sub4.jpg"",""stimuli/c2_sub4.jpg"",""stimuli/c2_sub4.jpg"",""stimuli/c3_sup5.jpg"",""stimuli/c3_sup5.jpg"",""stimuli/c2_sub4.jpg"",""stimuli/c2_sub5.jpg""]","[5,9,14,9,9,9,9,9,10,10,9,23]","[2356,3256,3942,5366,6925,9044,9734,11298,11664,12318,13199,17125]","[""select"",""select"",""select"",""unselect"",""select"",""unselect"",""select"",""unselect"",""select"",""unselect"",""select"",""select""]","[""stimuli/c2_bas3.jpg"",""stimuli/c2_bas4.jpg"",""stimuli/c2_sub4.jpg"",""stimuli/c2_sub5.jpg""]",19880,3,stimuli/c2_sub4.jpg,subordinate,vehicles,1,1
shark,p10j4aq34cj,12,7,132148,3-item,vehicles,basic,"[""stimuli/c2_bas3.jpg"",""stimuli/c2_sub4.jpg"",""stimuli/c2_bas4.jpg"",""stimuli/c2_sub4.jpg"",""stimuli/c2_sub4.jpg"",""stimuli/c2_sub4.jpg"",""stimuli/c2_sub4.jpg"",""stimuli/c2_sub4.jpg"",""stimuli/c3_sup5.jpg"",""stimuli/c3_sup5.jpg"",""stimuli/c2_sub4.jpg"",""stimuli/c2_sub5.jpg""]","[5,9,14,9,9,9,9,9,10,10,9,23]","[2356,3256,3942,5366,6925,9044,9734,11298,11664,12318,13199,17125]","[""select"",""select"",""select"",""unselect"",""select"",""unselect"",""select"",""unselect"",""select"",""unselect"",""select"",""select""]","[""stimuli/c2_bas3.jpg"",""stimuli/c2_bas4.jpg"",""stimuli/c2_sub4.jpg"",""stimuli/c2_sub5.jpg""]",19880,4,stimuli/c2_sub5.jpg,subordinate,vehicles,1,1
shark,p10j4aq34cj,13,8,136698,3-item,vehicles,subordinate,"[""stimuli/c2_sub5.jpg"",""stimuli/c2_sub4.jpg""]","[22,6]","[2211,3923]","[""select"",""select""]","[""stimuli/c2_sub5.jpg"",""stimuli/c2_sub4.jpg""]",4547,1,stimuli/c2_sub5.jpg,subordinate,vehicles,1,1
shark,p10j4aq34cj,13,8,136698,3-item,vehicles,subordinate,"[""stimuli/c2_sub5.jpg"",""stimuli/c2_sub4.jpg""]","[22,6]","[2211,3923]","[""select"",""select""]","[""stimuli/c2_sub5.jpg"",""stimuli/c2_sub4.jpg""]",4547,2,stimuli/c2_sub4.jpg,subordinate,vehicles,1,1
shark,p10j4aq34cj,14,9,149886,3-item,animals,basic,"[""stimuli/c3_bas3.jpg"",""stimuli/c3_bas3.jpg"",""stimuli/c3_bas3.jpg"",""stimuli/c3_bas3.jpg"",""stimuli/c3_bas3.jpg"",""stimuli/c3_sub4.jpg"",""stimuli/c3_sub5.jpg"",""stimuli/c3_bas4.jpg""]","[3,3,3,3,3,10,23,20]","[1877,2513,3496,4588,8920,9302,10603,11674]","[""select"",""unselect"",""select"",""unselect"",""select"",""select"",""select"",""select""]","[""stimuli/c3_bas3.jpg"",""stimuli/c3_sub4.jpg"",""stimuli/c3_sub5.jpg"",""stimuli/c3_bas4.jpg""]",13185,1,stimuli/c3_bas3.jpg,basic,animals,1,1
shark,p10j4aq34cj,14,9,149886,3-item,animals,basic,"[""stimuli/c3_bas3.jpg"",""stimuli/c3_bas3.jpg"",""stimuli/c3_bas3.jpg"",""stimuli/c3_bas3.jpg"",""stimuli/c3_bas3.jpg"",""stimuli/c3_sub4.jpg"",""stimuli/c3_sub5.jpg"",""stimuli/c3_bas4.jpg""]","[3,3,3,3,3,10,23,20]","[1877,2513,3496,4588,8920,9302,10603,11674]","[""select"",""unselect"",""select"",""unselect"",""select"",""select"",""select"",""select""]","[""stimuli/c3_bas3.jpg"",""stimuli/c3_sub4.jpg"",""stimuli/c3_sub5.jpg"",""stimuli/c3_bas4.jpg""]",13185,2,stimuli/c3_sub4.jpg,subordinate,animals,1,1
shark,p10j4aq34cj,14,9,149886,3-item,animals,basic,"[""stimuli/c3_bas3.jpg"",""stimuli/c3_bas3.jpg"",""stimuli/c3_bas3.jpg"",""stimuli/c3_bas3.jpg"",""stimuli/c3_bas3.jpg"",""stimuli/c3_sub4.jpg"",""stimuli/c3_sub5.jpg"",""stimuli/c3_bas4.jpg""]","[3,3,3,3,3,10,23,20]","[1877,2513,3496,4588,8920,9302,10603,11674]","[""select"",""unselect"",""select"",""unselect"",""select"",""select"",""select"",""select""]","[""stimuli/c3_bas3.jpg"",""stimuli/c3_sub4.jpg"",""stimuli/c3_sub5.jpg"",""stimuli/c3_bas4.jpg""]",13185,3,stimuli/c3_sub5.jpg,subordinate,animals,1,1
shark,p10j4aq34cj,14,9,149886,3-item,animals,basic,"[""stimuli/c3_bas3.jpg"",""stimuli/c3_bas3.jpg"",""stimuli/c3_bas3.jpg"",""stimuli/c3_bas3.jpg"",""stimuli/c3_bas3.jpg"",""stimuli/c3_sub4.jpg"",""stimuli/c3_sub5.jpg"",""stimuli/c3_bas4.jpg""]","[3,3,3,3,3,10,23,20]","[1877,2513,3496,4588,8920,9302,10603,11674]","[""select"",""unselect"",""select"",""unselect"",""select"",""select"",""select"",""select""]","[""stimuli/c3_bas3.jpg"",""stimuli/c3_sub4.jpg"",""stimuli/c3_sub5.jpg"",""stimuli/c3_bas4.jpg""]",13185,4,stimuli/c3_bas4.jpg,basic,animals,1,1
shark,p10j4aq34cj,15,10,170855,3-item,animals,superordinate,"[""stimuli/c1_sup5.jpg"",""stimuli/c1_sup5.jpg"",""stimuli/c3_bas3.jpg"",""stimuli/c3_sub5.jpg"",""stimuli/c3_sup3.jpg"",""stimuli/c3_sup6.jpg"",""stimuli/c3_bas4.jpg"",""stimuli/c3_sub4.jpg"",""stimuli/c3_sup4.jpg"",""stimuli/c3_sup5.jpg""]","[16,16,3,2,1,6,11,22,18,15]","[5683,7033,10207,10497,12014,12338,14058,15035,15773,17730]","[""select"",""unselect"",""select"",""select"",""select"",""select"",""select"",""select"",""select"",""select""]","[""stimuli/c3_bas3.jpg"",""stimuli/c3_sub5.jpg"",""stimuli/c3_sup3.jpg"",""stimuli/c3_sup6.jpg"",""stimuli/c3_bas4.jpg"",""stimuli/c3_sub4.jpg"",""stimuli/c3_sup4.jpg"",""stimuli/c3_sup5.jpg""]",20967,1,stimuli/c3_bas3.jpg,basic,animals,1,1
shark,p10j4aq34cj,15,10,170855,3-item,animals,superordinate,"[""stimuli/c1_sup5.jpg"",""stimuli/c1_sup5.jpg"",""stimuli/c3_bas3.jpg"",""stimuli/c3_sub5.jpg"",""stimuli/c3_sup3.jpg"",""stimuli/c3_sup6.jpg"",""stimuli/c3_bas4.jpg"",""stimuli/c3_sub4.jpg"",""stimuli/c3_sup4.jpg"",""stimuli/c3_sup5.jpg""]","[16,16,3,2,1,6,11,22,18,15]","[5683,7033,10207,10497,12014,12338,14058,15035,15773,17730]","[""select"",""unselect"",""select"",""select"",""select"",""select"",""select"",""select"",""select"",""select""]","[""stimuli/c3_bas3.jpg"",""stimuli/c3_sub5.jpg"",""stimuli/c3_sup3.jpg"",""stimuli/c3_sup6.jpg"",""stimuli/c3_bas4.jpg"",""stimuli/c3_sub4.jpg"",""stimuli/c3_sup4.jpg"",""stimuli/c3_sup5.jpg""]",20967,2,stimuli/c3_sub5.jpg,subordinate,animals,1,1
shark,p10j4aq34cj,15,10,170855,3-item,animals,superordinate,"[""stimuli/c1_sup5.jpg"",""stimuli/c1_sup5.jpg"",""stimuli/c3_bas3.jpg"",""stimuli/c3_sub5.jpg"",""stimuli/c3_sup3.jpg"",""stimuli/c3_sup6.jpg"",""stimuli/c3_bas4.jpg"",""stimuli/c3_sub4.jpg"",""stimuli/c3_sup4.jpg"",""stimuli/c3_sup5.jpg""]","[16,16,3,2,1,6,11,22,18,15]","[5683,7033,10207,10497,12014,12338,14058,15035,15773,17730]","[""select"",""unselect"",""select"",""select"",""select"",""select"",""select"",""select"",""select"",""select""]","[""stimuli/c3_bas3.jpg"",""stimuli/c3_sub5.jpg"",""stimuli/c3_sup3.jpg"",""stimuli/c3_sup6.jpg"",""stimuli/c3_bas4.jpg"",""stimuli/c3_sub4.jpg"",""stimuli/c3_sup4.jpg"",""stimuli/c3_sup5.jpg""]",20967,3,stimuli/c3_sup3.jpg,superordinate,animals,1,1
shark,p10j4aq34cj,15,10,170855,3-item,animals,superordinate,"[""stimuli/c1_sup5.jpg"",""stimuli/c1_sup5.jpg"",""stimuli/c3_bas3.jpg"",""stimuli/c3_sub5.jpg"",""stimuli/c3_sup3.jpg"",""stimuli/c3_sup6.jpg"",""stimuli/c3_bas4.jpg"",""stimuli/c3_sub4.jpg"",""stimuli/c3_sup4.jpg"",""stimuli/c3_sup5.jpg""]","[16,16,3,2,1,6,11,22,18,15]","[5683,7033,10207,10497,12014,12338,14058,15035,15773,17730]","[""select"",""unselect"",""select"",""select"",""select"",""select"",""select"",""select"",""select"",""select""]","[""stimuli/c3_bas3.jpg"",""stimuli/c3_sub5.jpg"",""stimuli/c3_sup3.jpg"",""stimuli/c3_sup6.jpg"",""stimuli/c3_bas4.jpg"",""stimuli/c3_sub4.jpg"",""stimuli/c3_sup4.jpg"",""stimuli/c3_sup5.jpg""]",20967,4,stimuli/c3_sup6.jpg,superordinate,animals,1,1
shark,p10j4aq34cj,15,10,170855,3-item,animals,superordinate,"[""stimuli/c1_sup5.jpg"",""stimuli/c1_sup5.jpg"",""stimuli/c3_bas3.jpg"",""stimuli/c3_sub5.jpg"",""stimuli/c3_sup3.jpg"",""stimuli/c3_sup6.jpg"",""stimuli/c3_bas4.jpg"",""stimuli/c3_sub4.jpg"",""stimuli/c3_sup4.jpg"",""stimuli/c3_sup5.jpg""]","[16,16,3,2,1,6,11,22,18,15]","[5683,7033,10207,10497,12014,12338,14058,15035,15773,17730]","[""select"",""unselect"",""select"",""select"",""select"",""select"",""select"",""select"",""select"",""select""]","[""stimuli/c3_bas3.jpg"",""stimuli/c3_sub5.jpg"",""stimuli/c3_sup3.jpg"",""stimuli/c3_sup6.jpg"",""stimuli/c3_bas4.jpg"",""stimuli/c3_sub4.jpg"",""stimuli/c3_sup4.jpg"",""stimuli/c3_sup5.jpg""]",20967,5,stimuli/c3_bas4.jpg,basic,animals,1,1
shark,p10j4aq34cj,15,10,170855,3-item,animals,superordinate,"[""stimuli/c1_sup5.jpg"",""stimuli/c1_sup5.jpg"",""stimuli/c3_bas3.jpg"",""stimuli/c3_sub5.jpg"",""stimuli/c3_sup3.jpg"",""stimuli/c3_sup6.jpg"",""stimuli/c3_bas4.jpg"",""stimuli/c3_sub4.jpg"",""stimuli/c3_sup4.jpg"",""stimuli/c3_sup5.jpg""]","[16,16,3,2,1,6,11,22,18,15]","[5683,7033,10207,10497,12014,12338,14058,15035,15773,17730]","[""select"",""unselect"",""select"",""select"",""select"",""select"",""select"",""select"",""select"",""select""]","[""stimuli/c3_bas3.jpg"",""stimuli/c3_sub5.jpg"",""stimuli/c3_sup3.jpg"",""stimuli/c3_sup6.jpg"",""stimuli/c3_bas4.jpg"",""stimuli/c3_sub4.jpg"",""stimuli/c3_sup4.jpg"",""stimuli/c3_sup5.jpg""]",20967,6,stimuli/c3_sub4.jpg,subordinate,animals,1,1
shark,p10j4aq34cj,15,10,170855,3-item,animals,superordinate,"[""stimuli/c1_sup5.jpg"",""stimuli/c1_sup5.jpg"",""stimuli/c3_bas3.jpg"",""stimuli/c3_sub5.jpg"",""stimuli/c3_sup3.jpg"",""stimuli/c3_sup6.jpg"",""stimuli/c3_bas4.jpg"",""stimuli/c3_sub4.jpg"",""stimuli/c3_sup4.jpg"",""stimuli/c3_sup5.jpg""]","[16,16,3,2,1,6,11,22,18,15]","[5683,7033,10207,10497,12014,12338,14058,15035,15773,17730]","[""select"",""unselect"",""select"",""select"",""select"",""select"",""select"",""select"",""select"",""select""]","[""stimuli/c3_bas3.jpg"",""stimuli/c3_sub5.jpg"",""stimuli/c3_sup3.jpg"",""stimuli/c3_sup6.jpg"",""stimuli/c3_bas4.jpg"",""stimuli/c3_sub4.jpg"",""stimuli/c3_sup4.jpg"",""stimuli/c3_sup5.jpg""]",20967,7,stimuli/c3_sup4.jpg,superordinate,animals,1,1
shark,p10j4aq34cj,15,10,170855,3-item,animals,superordinate,"[""stimuli/c1_sup5.jpg"",""stimuli/c1_sup5.jpg"",""stimuli/c3_bas3.jpg"",""stimuli/c3_sub5.jpg"",""stimuli/c3_sup3.jpg"",""stimuli/c3_sup6.jpg"",""stimuli/c3_bas4.jpg"",""stimuli/c3_sub4.jpg"",""stimuli/c3_sup4.jpg"",""stimuli/c3_sup5.jpg""]","[16,16,3,2,1,6,11,22,18,15]","[5683,7033,10207,10497,12014,12338,14058,15035,15773,17730]","[""select"",""unselect"",""select"",""select"",""select"",""select"",""select"",""select"",""select"",""select""]","[""stimuli/c3_bas3.jpg"",""stimuli/c3_sub5.jpg"",""stimuli/c3_sup3.jpg"",""stimuli/c3_sup6.jpg"",""stimuli/c3_bas4.jpg"",""stimuli/c3_sub4.jpg"",""stimuli/c3_sup4.jpg"",""stimuli/c3_sup5.jpg""]",20967,8,stimuli/c3_sup5.jpg,superordinate,animals,1,1
shark,p10j4aq34cj,16,11,179000,3-item,animals,subordinate,"[""stimuli/c3_sub4.jpg"",""stimuli/c3_sub5.jpg""]","[22,11]","[4636,5723]","[""select"",""select""]","[""stimuli/c3_sub4.jpg"",""stimuli/c3_sub5.jpg""]",8143,1,stimuli/c3_sub4.jpg,subordinate,animals,1,1
shark,p10j4aq34cj,16,11,179000,3-item,animals,subordinate,"[""stimuli/c3_sub4.jpg"",""stimuli/c3_sub5.jpg""]","[22,11]","[4636,5723]","[""select"",""select""]","[""stimuli/c3_sub4.jpg"",""stimuli/c3_sub5.jpg""]",8143,2,stimuli/c3_sub5.jpg,subordinate,animals,1,1
shark,p10j4aq34cj,17,12,197508,3-item,vehicles,superordinate,"[""stimuli/c2_bas3.jpg"",""stimuli/c2_bas4.jpg"",""stimuli/c2_sub4.jpg"",""stimuli/c2_sup6.jpg"",""stimuli/c2_sub5.jpg""]","[13,12,17,11,2]","[9755,10169,11226,15202,16090]","[""select"",""select"",""select"",""select"",""select""]","[""stimuli/c2_bas3.jpg"",""stimuli/c2_bas4.jpg"",""stimuli/c2_sub4.jpg"",""stimuli/c2_sup6.jpg"",""stimuli/c2_sub5.jpg""]",18507,1,stimuli/c2_bas3.jpg,basic,vehicles,1,1
shark,p10j4aq34cj,17,12,197508,3-item,vehicles,superordinate,"[""stimuli/c2_bas3.jpg"",""stimuli/c2_bas4.jpg"",""stimuli/c2_sub4.jpg"",""stimuli/c2_sup6.jpg"",""stimuli/c2_sub5.jpg""]","[13,12,17,11,2]","[9755,10169,11226,15202,16090]","[""select"",""select"",""select"",""select"",""select""]","[""stimuli/c2_bas3.jpg"",""stimuli/c2_bas4.jpg"",""stimuli/c2_sub4.jpg"",""stimuli/c2_sup6.jpg"",""stimuli/c2_sub5.jpg""]",18507,2,stimuli/c2_bas4.jpg,basic,vehicles,1,1
shark,p10j4aq34cj,17,12,197508,3-item,vehicles,superordinate,"[""stimuli/c2_bas3.jpg"",""stimuli/c2_bas4.jpg"",""stimuli/c2_sub4.jpg"",""stimuli/c2_sup6.jpg"",""stimuli/c2_sub5.jpg""]","[13,12,17,11,2]","[9755,10169,11226,15202,16090]","[""select"",""select"",""select"",""select"",""select""]","[""stimuli/c2_bas3.jpg"",""stimuli/c2_bas4.jpg"",""stimuli/c2_sub4.jpg"",""stimuli/c2_sup6.jpg"",""stimuli/c2_sub5.jpg""]",18507,3,stimuli/c2_sub4.jpg,subordinate,vehicles,1,1
shark,p10j4aq34cj,17,12,197508,3-item,vehicles,superordinate,"[""stimuli/c2_bas3.jpg"",""stimuli/c2_bas4.jpg"",""stimuli/c2_sub4.jpg"",""stimuli/c2_sup6.jpg"",""stimuli/c2_sub5.jpg""]","[13,12,17,11,2]","[9755,10169,11226,15202,16090]","[""select"",""select"",""select"",""select"",""select""]","[""stimuli/c2_bas3.jpg"",""stimuli/c2_bas4.jpg"",""stimuli/c2_sub4.jpg"",""stimuli/c2_sup6.jpg"",""stimuli/c2_sub5.jpg""]",18507,4,stimuli/c2_sup6.jpg,superordinate,vehicles,1,1
shark,p10j4aq34cj,17,12,197508,3-item,vehicles,superordinate,"[""stimuli/c2_bas3.jpg"",""stimuli/c2_bas4.jpg"",""stimuli/c2_sub4.jpg"",""stimuli/c2_sup6.jpg"",""stimuli/c2_sub5.jpg""]","[13,12,17,11,2]","[9755,10169,11226,15202,16090]","[""select"",""select"",""select"",""select"",""select""]","[""stimuli/c2_bas3.jpg"",""stimuli/c2_bas4.jpg"",""stimuli/c2_sub4.jpg"",""stimuli/c2_sup6.jpg"",""stimuli/c2_sub5.jpg""]",18507,5,stimuli/c2_sub5.jpg,subordinate,vehicles,1,1
gazelle,p11mpfuj81s,6,1,174554,1-item,vegetables,one-subordinate,"[""stimuli/c1_sub4.jpg"",""stimuli/c1_sub5.jpg"",""stimuli/c1_bas3.jpg"",""stimuli/c1_bas4.jpg""]","[4,11,21,22]","[30366,31701,35865,36416]","[""select"",""select"",""select"",""select""]","[""stimuli/c1_sub4.jpg"",""stimuli/c1_sub5.jpg"",""stimuli/c1_bas3.jpg"",""stimuli/c1_bas4.jpg""]",37983,1,stimuli/c1_sub4.jpg,subordinate,vegetables,1,1
gazelle,p11mpfuj81s,6,1,174554,1-item,vegetables,one-subordinate,"[""stimuli/c1_sub4.jpg"",""stimuli/c1_sub5.jpg"",""stimuli/c1_bas3.jpg"",""stimuli/c1_bas4.jpg""]","[4,11,21,22]","[30366,31701,35865,36416]","[""select"",""select"",""select"",""select""]","[""stimuli/c1_sub4.jpg"",""stimuli/c1_sub5.jpg"",""stimuli/c1_bas3.jpg"",""stimuli/c1_bas4.jpg""]",37983,2,stimuli/c1_sub5.jpg,subordinate,vegetables,1,1
gazelle,p11mpfuj81s,6,1,174554,1-item,vegetables,one-subordinate,"[""stimuli/c1_sub4.jpg"",""stimuli/c1_sub5.jpg"",""stimuli/c1_bas3.jpg"",""stimuli/c1_bas4.jpg""]","[4,11,21,22]","[30366,31701,35865,36416]","[""select"",""select"",""select"",""select""]","[""stimuli/c1_sub4.jpg"",""stimuli/c1_sub5.jpg"",""stimuli/c1_bas3.jpg"",""stimuli/c1_bas4.jpg""]",37983,3,stimuli/c1_bas3.jpg,basic,vegetables,1,0
gazelle,p11mpfuj81s,6,1,174554,1-item,vegetables,one-subordinate,"[""stimuli/c1_sub4.jpg"",""stimuli/c1_sub5.jpg"",""stimuli/c1_bas3.jpg"",""stimuli/c1_bas4.jpg""]","[4,11,21,22]","[30366,31701,35865,36416]","[""select"",""select"",""select"",""select""]","[""stimuli/c1_sub4.jpg"",""stimuli/c1_sub5.jpg"",""stimuli/c1_bas3.jpg"",""stimuli/c1_bas4.jpg""]",37983,4,stimuli/c1_bas4.jpg,basic,vegetables,1,0
gazelle,p11mpfuj81s,7,2,488892,1-item,vehicles,one-subordinate,"[""stimuli/c2_sub4.jpg"",""stimuli/c2_sub5.jpg""]","[6,20]","[309629,312077]","[""select"",""select""]","[""stimuli/c2_sub4.jpg"",""stimuli/c2_sub5.jpg""]",314328,1,stimuli/c2_sub4.jpg,subordinate,vehicles,1,1
gazelle,p11mpfuj81s,7,2,488892,1-item,vehicles,one-subordinate,"[""stimuli/c2_sub4.jpg"",""stimuli/c2_sub5.jpg""]","[6,20]","[309629,312077]","[""select"",""select""]","[""stimuli/c2_sub4.jpg"",""stimuli/c2_sub5.jpg""]",314328,2,stimuli/c2_sub5.jpg,subordinate,vehicles,1,1
gazelle,p11mpfuj81s,8,3,497707,1-item,animals,one-subordinate,"[""stimuli/c3_bas3.jpg"",""stimuli/c3_sub4.jpg"",""stimuli/c3_bas3.jpg"",""stimuli/c3_sub5.jpg""]","[10,14,10,22]","[2729,3745,4363,6145]","[""select"",""select"",""unselect"",""select""]","[""stimuli/c3_sub4.jpg"",""stimuli/c3_sub5.jpg""]",8812,1,stimuli/c3_sub4.jpg,subordinate,animals,1,1
gazelle,p11mpfuj81s,8,3,497707,1-item,animals,one-subordinate,"[""stimuli/c3_bas3.jpg"",""stimuli/c3_sub4.jpg"",""stimuli/c3_bas3.jpg"",""stimuli/c3_sub5.jpg""]","[10,14,10,22]","[2729,3745,4363,6145]","[""select"",""select"",""unselect"",""select""]","[""stimuli/c3_sub4.jpg"",""stimuli/c3_sub5.jpg""]",8812,2,stimuli/c3_sub5.jpg,subordinate,animals,1,1
gazelle,p11mpfuj81s,9,4,509492,3-item,vegetables,superordinate,"[""stimuli/c1_sup6.jpg"",""stimuli/c1_sup5.jpg"",""stimuli/c1_bas3.jpg"",""stimuli/c1_sup4.jpg"",""stimuli/c1_sup3.jpg"",""stimuli/c1_sub4.jpg"",""stimuli/c1_sub5.jpg"",""stimuli/c1_bas4.jpg""]","[0,3,9,10,11,17,13,21]","[4966,5564,6047,6563,7114,7497,8996,9863]","[""select"",""select"",""select"",""select"",""select"",""select"",""select"",""select""]","[""stimuli/c1_sup6.jpg"",""stimuli/c1_sup5.jpg"",""stimuli/c1_bas3.jpg"",""stimuli/c1_sup4.jpg"",""stimuli/c1_sup3.jpg"",""stimuli/c1_sub4.jpg"",""stimuli/c1_sub5.jpg"",""stimuli/c1_bas4.jpg""]",11781,1,stimuli/c1_sup6.jpg,superordinate,vegetables,1,1
gazelle,p11mpfuj81s,9,4,509492,3-item,vegetables,superordinate,"[""stimuli/c1_sup6.jpg"",""stimuli/c1_sup5.jpg"",""stimuli/c1_bas3.jpg"",""stimuli/c1_sup4.jpg"",""stimuli/c1_sup3.jpg"",""stimuli/c1_sub4.jpg"",""stimuli/c1_sub5.jpg"",""stimuli/c1_bas4.jpg""]","[0,3,9,10,11,17,13,21]","[4966,5564,6047,6563,7114,7497,8996,9863]","[""select"",""select"",""select"",""select"",""select"",""select"",""select"",""select""]","[""stimuli/c1_sup6.jpg"",""stimuli/c1_sup5.jpg"",""stimuli/c1_bas3.jpg"",""stimuli/c1_sup4.jpg"",""stimuli/c1_sup3.jpg"",""stimuli/c1_sub4.jpg"",""stimuli/c1_sub5.jpg"",""stimuli/c1_bas4.jpg""]",11781,2,stimuli/c1_sup5.jpg,superordinate,vegetables,1,1
gazelle,p11mpfuj81s,9,4,509492,3-item,vegetables,superordinate,"[""stimuli/c1_sup6.jpg"",""stimuli/c1_sup5.jpg"",""stimuli/c1_bas3.jpg"",""stimuli/c1_sup4.jpg"",""stimuli/c1_sup3.jpg"",""stimuli/c1_sub4.jpg"",""stimuli/c1_sub5.jpg"",""stimuli/c1_bas4.jpg""]","[0,3,9,10,11,17,13,21]","[4966,5564,6047,6563,7114,7497,8996,9863]","[""select"",""select"",""select"",""select"",""select"",""select"",""select"",""select""]","[""stimuli/c1_sup6.jpg"",""stimuli/c1_sup5.jpg"",""stimuli/c1_bas3.jpg"",""stimuli/c1_sup4.jpg"",""stimuli/c1_sup3.jpg"",""stimuli/c1_sub4.jpg"",""stimuli/c1_sub5.jpg"",""stimuli/c1_bas4.jpg""]",11781,3,stimuli/c1_bas3.jpg,basic,vegetables,1,1
gazelle,p11mpfuj81s,9,4,509492,3-item,vegetables,superordinate,"[""stimuli/c1_sup6.jpg"",""stimuli/c1_sup5.jpg"",""stimuli/c1_bas3.jpg"",""stimuli/c1_sup4.jpg"",""stimuli/c1_sup3.jpg"",""stimuli/c1_sub4.jpg"",""stimuli/c1_sub5.jpg"",""stimuli/c1_bas4.jpg""]","[0,3,9,10,11,17,13,21]","[4966,5564,6047,6563,7114,7497,8996,9863]","[""select"",""select"",""select"",""select"",""select"",""select"",""select"",""select""]","[""stimuli/c1_sup6.jpg"",""stimuli/c1_sup5.jpg"",""stimuli/c1_bas3.jpg"",""stimuli/c1_sup4.jpg"",""stimuli/c1_sup3.jpg"",""stimuli/c1_sub4.jpg"",""stimuli/c1_sub5.jpg"",""stimuli/c1_bas4.jpg""]",11781,4,stimuli/c1_sup4.jpg,superordinate,vegetables,1,1
gazelle,p11mpfuj81s,9,4,509492,3-item,vegetables,superordinate,"[""stimuli/c1_sup6.jpg"",""stimuli/c1_sup5.jpg"",""stimuli/c1_bas3.jpg"",""stimuli/c1_sup4.jpg"",""stimuli/c1_sup3.jpg"",""stimuli/c1_sub4.jpg"",""stimuli/c1_sub5.jpg"",""stimuli/c1_bas4.jpg""]","[0,3,9,10,11,17,13,21]","[4966,5564,6047,6563,7114,7497,8996,9863]","[""select"",""select"",""select"",""select"",""select"",""select"",""select"",""select""]","[""stimuli/c1_sup6.jpg"",""stimuli/c1_sup5.jpg"",""stimuli/c1_bas3.jpg"",""stimuli/c1_sup4.jpg"",""stimuli/c1_sup3.jpg"",""stimuli/c1_sub4.jpg"",""stimuli/c1_sub5.jpg"",""stimuli/c1_bas4.jpg""]",11781,5,stimuli/c1_sup3.jpg,superordinate,vegetables,1,1
gazelle,p11mpfuj81s,9,4,509492,3-item,vegetables,superordinate,"[""stimuli/c1_sup6.jpg"",""stimuli/c1_sup5.jpg"",""stimuli/c1_bas3.jpg"",""stimuli/c1_sup4.jpg"",""stimuli/c1_sup3.jpg"",""stimuli/c1_sub4.jpg"",""stimuli/c1_sub5.jpg"",""stimuli/c1_bas4.jpg""]","[0,3,9,10,11,17,13,21]","[4966,5564,6047,6563,7114,7497,8996,9863]","[""select"",""select"",""select"",""select"",""select"",""select"",""select"",""select""]","[""stimuli/c1_sup6.jpg"",""stimuli/c1_sup5.jpg"",""stimuli/c1_bas3.jpg"",""stimuli/c1_sup4.jpg"",""stimuli/c1_sup3.jpg"",""stimuli/c1_sub4.jpg"",""stimuli/c1_sub5.jpg"",""stimuli/c1_bas4.jpg""]",11781,6,stimuli/c1_sub4.jpg,subordinate,vegetables,1,1
gazelle,p11mpfuj81s,9,4,509492,3-item,vegetables,superordinate,"[""stimuli/c1_sup6.jpg"",""stimuli/c1_sup5.jpg"",""stimuli/c1_bas3.jpg"",""stimuli/c1_sup4.jpg"",""stimuli/c1_sup3.jpg"",""stimuli/c1_sub4.jpg"",""stimuli/c1_sub5.jpg"",""stimuli/c1_bas4.jpg""]","[0,3,9,10,11,17,13,21]","[4966,5564,6047,6563,7114,7497,8996,9863]","[""select"",""select"",""select"",""select"",""select"",""select"",""select"",""select""]","[""stimuli/c1_sup6.jpg"",""stimuli/c1_sup5.jpg"",""stimuli/c1_bas3.jpg"",""stimuli/c1_sup4.jpg"",""stimuli/c1_sup3.jpg"",""stimuli/c1_sub4.jpg"",""stimuli/c1_sub5.jpg"",""stimuli/c1_bas4.jpg""]",11781,7,stimuli/c1_sub5.jpg,subordinate,vegetables,1,1
gazelle,p11mpfuj81s,9,4,509492,3-item,vegetables,superordinate,"[""stimuli/c1_sup6.jpg"",""stimuli/c1_sup5.jpg"",""stimuli/c1_bas3.jpg"",""stimuli/c1_sup4.jpg"",""stimuli/c1_sup3.jpg"",""stimuli/c1_sub4.jpg"",""stimuli/c1_sub5.jpg"",""stimuli/c1_bas4.jpg""]","[0,3,9,10,11,17,13,21]","[4966,5564,6047,6563,7114,7497,8996,9863]","[""select"",""select"",""select"",""select"",""select"",""select"",""select"",""select""]","[""stimuli/c1_sup6.jpg"",""stimuli/c1_sup5.jpg"",""stimuli/c1_bas3.jpg"",""stimuli/c1_sup4.jpg"",""stimuli/c1_sup3.jpg"",""stimuli/c1_sub4.jpg"",""stimuli/c1_sub5.jpg"",""stimuli/c1_bas4.jpg""]",11781,8,stimuli/c1_bas4.jpg,basic,vegetables,1,1
gazelle,p11mpfuj81s,10,5,709377,3-item,vehicles,superordinate,"[""stimuli/c2_sub5.jpg"",""stimuli/c2_sub4.jpg"",""stimuli/c2_bas4.jpg"",""stimuli/c2_sup3.jpg"",""stimuli/c2_bas3.jpg"",""stimuli/c2_sup5.jpg"",""stimuli/c2_sup6.jpg"",""stimuli/c2_sup4.jpg""]","[7,12,14,20,21,17,11,10]","[194278,194695,195345,196045,196612,197478,197928,198495]","[""select"",""select"",""select"",""select"",""select"",""select"",""select"",""select""]","[""stimuli/c2_sub5.jpg"",""stimuli/c2_sub4.jpg"",""stimuli/c2_bas4.jpg"",""stimuli/c2_sup3.jpg"",""stimuli/c2_bas3.jpg"",""stimuli/c2_sup5.jpg"",""stimuli/c2_sup6.jpg"",""stimuli/c2_sup4.jpg""]",199879,1,stimuli/c2_sub5.jpg,subordinate,vehicles,1,1
gazelle,p11mpfuj81s,10,5,709377,3-item,vehicles,superordinate,"[""stimuli/c2_sub5.jpg"",""stimuli/c2_sub4.jpg"",""stimuli/c2_bas4.jpg"",""stimuli/c2_sup3.jpg"",""stimuli/c2_bas3.jpg"",""stimuli/c2_sup5.jpg"",""stimuli/c2_sup6.jpg"",""stimuli/c2_sup4.jpg""]","[7,12,14,20,21,17,11,10]","[194278,194695,195345,196045,196612,197478,197928,198495]","[""select"",""select"",""select"",""select"",""select"",""select"",""select"",""select""]","[""stimuli/c2_sub5.jpg"",""stimuli/c2_sub4.jpg"",""stimuli/c2_bas4.jpg"",""stimuli/c2_sup3.jpg"",""stimuli/c2_bas3.jpg"",""stimuli/c2_sup5.jpg"",""stimuli/c2_sup6.jpg"",""stimuli/c2_sup4.jpg""]",199879,2,stimuli/c2_sub4.jpg,subordinate,vehicles,1,1
gazelle,p11mpfuj81s,10,5,709377,3-item,vehicles,superordinate,"[""stimuli/c2_sub5.jpg"",""stimuli/c2_sub4.jpg"",""stimuli/c2_bas4.jpg"",""stimuli/c2_sup3.jpg"",""stimuli/c2_bas3.jpg"",""stimuli/c2_sup5.jpg"",""stimuli/c2_sup6.jpg"",""stimuli/c2_sup4.jpg""]","[7,12,14,20,21,17,11,10]","[194278,194695,195345,196045,196612,197478,197928,198495]","[""select"",""select"",""select"",""select"",""select"",""select"",""select"",""select""]","[""stimuli/c2_sub5.jpg"",""stimuli/c2_sub4.jpg"",""stimuli/c2_bas4.jpg"",""stimuli/c2_sup3.jpg"",""stimuli/c2_bas3.jpg"",""stimuli/c2_sup5.jpg"",""stimuli/c2_sup6.jpg"",""stimuli/c2_sup4.jpg""]",199879,3,stimuli/c2_bas4.jpg,basic,vehicles,1,1
gazelle,p11mpfuj81s,10,5,709377,3-item,vehicles,superordinate,"[""stimuli/c2_sub5.jpg"",""stimuli/c2_sub4.jpg"",""stimuli/c2_bas4.jpg"",""stimuli/c2_sup3.jpg"",""stimuli/c2_bas3.jpg"",""stimuli/c2_sup5.jpg"",""stimuli/c2_sup6.jpg"",""stimuli/c2_sup4.jpg""]","[7,12,14,20,21,17,11,10]","[194278,194695,195345,196045,196612,197478,197928,198495]","[""select"",""select"",""select"",""select"",""select"",""select"",""select"",""select""]","[""stimuli/c2_sub5.jpg"",""stimuli/c2_sub4.jpg"",""stimuli/c2_bas4.jpg"",""stimuli/c2_sup3.jpg"",""stimuli/c2_bas3.jpg"",""stimuli/c2_sup5.jpg"",""stimuli/c2_sup6.jpg"",""stimuli/c2_sup4.jpg""]",199879,4,stimuli/c2_sup3.jpg,superordinate,vehicles,1,1
gazelle,p11mpfuj81s,10,5,709377,3-item,vehicles,superordinate,"[""stimuli/c2_sub5.jpg"",""stimuli/c2_sub4.jpg"",""stimuli/c2_bas4.jpg"",""stimuli/c2_sup3.jpg"",""stimuli/c2_bas3.jpg"",""stimuli/c2_sup5.jpg"",""stimuli/c2_sup6.jpg"",""stimuli/c2_sup4.jpg""]","[7,12,14,20,21,17,11,10]","[194278,194695,195345,196045,196612,197478,197928,198495]","[""select"",""select"",""select"",""select"",""select"",""select"",""select"",""select""]","[""stimuli/c2_sub5.jpg"",""stimuli/c2_sub4.jpg"",""stimuli/c2_bas4.jpg"",""stimuli/c2_sup3.jpg"",""stimuli/c2_bas3.jpg"",""stimuli/c2_sup5.jpg"",""stimuli/c2_sup6.jpg"",""stimuli/c2_sup4.jpg""]",199879,5,stimuli/c2_bas3.jpg,basic,vehicles,1,1
gazelle,p11mpfuj81s,10,5,709377,3-item,vehicles,superordinate,"[""stimuli/c2_sub5.jpg"",""stimuli/c2_sub4.jpg"",""stimuli/c2_bas4.jpg"",""stimuli/c2_sup3.jpg"",""stimuli/c2_bas3.jpg"",""stimuli/c2_sup5.jpg"",""stimuli/c2_sup6.jpg"",""stimuli/c2_sup4.jpg""]","[7,12,14,20,21,17,11,10]","[194278,194695,195345,196045,196612,197478,197928,198495]","[""select"",""select"",""select"",""select"",""select"",""select"",""select"",""select""]","[""stimuli/c2_sub5.jpg"",""stimuli/c2_sub4.jpg"",""stimuli/c2_bas4.jpg"",""stimuli/c2_sup3.jpg"",""stimuli/c2_bas3.jpg"",""stimuli/c2_sup5.jpg"",""stimuli/c2_sup6.jpg"",""stimuli/c2_sup4.jpg""]",199879,6,stimuli/c2_sup5.jpg,superordinate,vehicles,1,1
gazelle,p11mpfuj81s,10,5,709377,3-item,vehicles,superordinate,"[""stimuli/c2_sub5.jpg"",""stimuli/c2_sub4.jpg"",""stimuli/c2_bas4.jpg"",""stimuli/c2_sup3.jpg"",""stimuli/c2_bas3.jpg"",""stimuli/c2_sup5.jpg"",""stimuli/c2_sup6.jpg"",""stimuli/c2_sup4.jpg""]","[7,12,14,20,21,17,11,10]","[194278,194695,195345,196045,196612,197478,197928,198495]","[""select"",""select"",""select"",""select"",""select"",""select"",""select"",""select""]","[""stimuli/c2_sub5.jpg"",""stimuli/c2_sub4.jpg"",""stimuli/c2_bas4.jpg"",""stimuli/c2_sup3.jpg"",""stimuli/c2_bas3.jpg"",""stimuli/c2_sup5.jpg"",""stimuli/c2_sup6.jpg"",""stimuli/c2_sup4.jpg""]",199879,7,stimuli/c2_sup6.jpg,superordinate,vehicles,1,1
gazelle,p11mpfuj81s,10,5,709377,3-item,vehicles,superordinate,"[""stimuli/c2_sub5.jpg"",""stimuli/c2_sub4.jpg"",""stimuli/c2_bas4.jpg"",""stimuli/c2_sup3.jpg"",""stimuli/c2_bas3.jpg"",""stimuli/c2_sup5.jpg"",""stimuli/c2_sup6.jpg"",""stimuli/c2_sup4.jpg""]","[7,12,14,20,21,17,11,10]","[194278,194695,195345,196045,196612,197478,197928,198495]","[""select"",""select"",""select"",""select"",""select"",""select"",""select"",""select""]","[""stimuli/c2_sub5.jpg"",""stimuli/c2_sub4.jpg"",""stimuli/c2_bas4.jpg"",""stimuli/c2_sup3.jpg"",""stimuli/c2_bas3.jpg"",""stimuli/c2_sup5.jpg"",""stimuli/c2_sup6.jpg"",""stimuli/c2_sup4.jpg""]",199879,8,stimuli/c2_sup4.jpg,superordinate,vehicles,1,1
gazelle,p11mpfuj81s,11,6,715877,3-item,vegetables,basic,"[""stimuli/c1_bas4.jpg"",""stimuli/c1_sub5.jpg"",""stimuli/c1_sub4.jpg"",""stimuli/c1_bas3.jpg""]","[6,14,20,19]","[2264,2830,3196,3564]","[""select"",""select"",""select"",""select""]","[""stimuli/c1_bas4.jpg"",""stimuli/c1_sub5.jpg"",""stimuli/c1_sub4.jpg"",""stimuli/c1_bas3.jpg""]",6497,1,stimuli/c1_bas4.jpg,basic,vegetables,1,1
gazelle,p11mpfuj81s,11,6,715877,3-item,vegetables,basic,"[""stimuli/c1_bas4.jpg"",""stimuli/c1_sub5.jpg"",""stimuli/c1_sub4.jpg"",""stimuli/c1_bas3.jpg""]","[6,14,20,19]","[2264,2830,3196,3564]","[""select"",""select"",""select"",""select""]","[""stimuli/c1_bas4.jpg"",""stimuli/c1_sub5.jpg"",""stimuli/c1_sub4.jpg"",""stimuli/c1_bas3.jpg""]",6497,2,stimuli/c1_sub5.jpg,subordinate,vegetables,1,1
gazelle,p11mpfuj81s,11,6,715877,3-item,vegetables,basic,"[""stimuli/c1_bas4.jpg"",""stimuli/c1_sub5.jpg"",""stimuli/c1_sub4.jpg"",""stimuli/c1_bas3.jpg""]","[6,14,20,19]","[2264,2830,3196,3564]","[""select"",""select"",""select"",""select""]","[""stimuli/c1_bas4.jpg"",""stimuli/c1_sub5.jpg"",""stimuli/c1_sub4.jpg"",""stimuli/c1_bas3.jpg""]",6497,3,stimuli/c1_sub4.jpg,subordinate,vegetables,1,1
gazelle,p11mpfuj81s,11,6,715877,3-item,vegetables,basic,"[""stimuli/c1_bas4.jpg"",""stimuli/c1_sub5.jpg"",""stimuli/c1_sub4.jpg"",""stimuli/c1_bas3.jpg""]","[6,14,20,19]","[2264,2830,3196,3564]","[""select"",""select"",""select"",""select""]","[""stimuli/c1_bas4.jpg"",""stimuli/c1_sub5.jpg"",""stimuli/c1_sub4.jpg"",""stimuli/c1_bas3.jpg""]",6497,4,stimuli/c1_bas3.jpg,basic,vegetables,1,1
gazelle,p11mpfuj81s,12,7,722276,3-item,vehicles,basic,"[""stimuli/c2_sub5.jpg"",""stimuli/c2_bas3.jpg"",""stimuli/c2_sub4.jpg"",""stimuli/c2_bas4.jpg""]","[9,15,5,12]","[2364,2830,3980,4780]","[""select"",""select"",""select"",""select""]","[""stimuli/c2_sub5.jpg"",""stimuli/c2_bas3.jpg"",""stimuli/c2_sub4.jpg"",""stimuli/c2_bas4.jpg""]",6397,1,stimuli/c2_sub5.jpg,subordinate,vehicles,1,1
gazelle,p11mpfuj81s,12,7,722276,3-item,vehicles,basic,"[""stimuli/c2_sub5.jpg"",""stimuli/c2_bas3.jpg"",""stimuli/c2_sub4.jpg"",""stimuli/c2_bas4.jpg""]","[9,15,5,12]","[2364,2830,3980,4780]","[""select"",""select"",""select"",""select""]","[""stimuli/c2_sub5.jpg"",""stimuli/c2_bas3.jpg"",""stimuli/c2_sub4.jpg"",""stimuli/c2_bas4.jpg""]",6397,2,stimuli/c2_bas3.jpg,basic,vehicles,1,1
gazelle,p11mpfuj81s,12,7,722276,3-item,vehicles,basic,"[""stimuli/c2_sub5.jpg"",""stimuli/c2_bas3.jpg"",""stimuli/c2_sub4.jpg"",""stimuli/c2_bas4.jpg""]","[9,15,5,12]","[2364,2830,3980,4780]","[""select"",""select"",""select"",""select""]","[""stimuli/c2_sub5.jpg"",""stimuli/c2_bas3.jpg"",""stimuli/c2_sub4.jpg"",""stimuli/c2_bas4.jpg""]",6397,3,stimuli/c2_sub4.jpg,subordinate,vehicles,1,1
gazelle,p11mpfuj81s,12,7,722276,3-item,vehicles,basic,"[""stimuli/c2_sub5.jpg"",""stimuli/c2_bas3.jpg"",""stimuli/c2_sub4.jpg"",""stimuli/c2_bas4.jpg""]","[9,15,5,12]","[2364,2830,3980,4780]","[""select"",""select"",""select"",""select""]","[""stimuli/c2_sub5.jpg"",""stimuli/c2_bas3.jpg"",""stimuli/c2_sub4.jpg"",""stimuli/c2_bas4.jpg""]",6397,4,stimuli/c2_bas4.jpg,basic,vehicles,1,1
gazelle,p11mpfuj81s,13,8,734094,3-item,animals,superordinate,"[""stimuli/c3_sup3.jpg"",""stimuli/c3_sup6.jpg"",""stimuli/c3_sub4.jpg"",""stimuli/c3_bas4.jpg"",""stimuli/c3_sup5.jpg"",""stimuli/c3_sub5.jpg"",""stimuli/c3_sup4.jpg"",""stimuli/c3_bas3.jpg""]","[0,4,10,11,17,22,20,8]","[3848,4448,5081,5448,6065,7015,7715,8865]","[""select"",""select"",""select"",""select"",""select"",""select"",""select"",""select""]","[""stimuli/c3_sup3.jpg"",""stimuli/c3_sup6.jpg"",""stimuli/c3_sub4.jpg"",""stimuli/c3_bas4.jpg"",""stimuli/c3_sup5.jpg"",""stimuli/c3_sub5.jpg"",""stimuli/c3_sup4.jpg"",""stimuli/c3_bas3.jpg""]",11815,1,stimuli/c3_sup3.jpg,superordinate,animals,1,1
gazelle,p11mpfuj81s,13,8,734094,3-item,animals,superordinate,"[""stimuli/c3_sup3.jpg"",""stimuli/c3_sup6.jpg"",""stimuli/c3_sub4.jpg"",""stimuli/c3_bas4.jpg"",""stimuli/c3_sup5.jpg"",""stimuli/c3_sub5.jpg"",""stimuli/c3_sup4.jpg"",""stimuli/c3_bas3.jpg""]","[0,4,10,11,17,22,20,8]","[3848,4448,5081,5448,6065,7015,7715,8865]","[""select"",""select"",""select"",""select"",""select"",""select"",""select"",""select""]","[""stimuli/c3_sup3.jpg"",""stimuli/c3_sup6.jpg"",""stimuli/c3_sub4.jpg"",""stimuli/c3_bas4.jpg"",""stimuli/c3_sup5.jpg"",""stimuli/c3_sub5.jpg"",""stimuli/c3_sup4.jpg"",""stimuli/c3_bas3.jpg""]",11815,2,stimuli/c3_sup6.jpg,superordinate,animals,1,1
