"success","rt","trial_type","trial_index","plugin_version","time_elapsed","random_id","participant","timeout","failed_images","failed_audio","failed_video","stimulus","response","condition","category","level","selection_array","selection_index","rt_array","selection_type_array","final_choice_array","final_rt"
"true","2504","fullscreen","0","null","3522","p0dl5tzjk4h","Beaver","","","","","","","","","","","","","","",""
"true","","preload","1","2.0.0","4027","p0dl5tzjk4h","Beaver","false","[]","[]","[]","","","","","","","","","","",""
"","983","html-keyboard-response","2","2.0.0","5012","p0dl5tzjk4h","Beaver","","","","","Welcome to the experiment. Press any key to begin."," ","","","","","","","","",""
"","7355","survey-text","3","2.0.0","12376","p0dl5tzjk4h","Beaver","","","","","","{""participant_id"":""Beaver""}","","","","","","","","",""
"","5561","html-keyboard-response","4","2.0.0","17941","p0dl5tzjk4h","Beaver","","","","","
  <p><b>This is Mr. Frog!</b></p>
  <img src=""stimuli/mrfrog.png"" alt=""Mr. Frog"" style=""width:300px;height:300px;"">
  <p>He speaks a different language and needs help finding the items he wants. Can you help Mr. Frog?</p>
  <p>Press any key to move to the next page.</p>
"," ","","","","","","","","",""
"","10379","html-keyboard-response","5","2.0.0","28321","p0dl5tzjk4h","Beaver","","","","","
  <img src=""stimuli/mrfrog.png"" alt=""Mr. Frog"" style=""width:300px;height:300px;"">
  <p>In each trial, you will be shown an image that will be labeled with a word in the language that Mr. Frog speaks. </p>
  <p>Your job will be to select all the items that you think matches what Mr. Frog is asking for. </p>
  <p>Press any key to begin.</p>
"," ","","","","","","","","",""
"","","html-button-response","6","2.0.0","53437","p0dl5tzjk4h","Beaver","","","","","<img src=""stimuli/c3_sub1.jpg"" style=""width:200px;height:200px;""> 
              <p>Here is a tev. Can you give Mr. Frog all the other tevs?</p>
              <p>Click on all of the tevs below. If you change your mind, you can unselect any image.</p>
              <p>Click the Submit button when you are done selecting all the tevs.</p>","","1-item","animals","one-subordinate","[""stimuli/c3_sub4.jpg"",""stimuli/c3_bas4.jpg"",""stimuli/c3_bas3.jpg"",""stimuli/c3_sub5.jpg""]","[3,1,10,17]","[16199,17247,19259,20625]","[""select"",""select"",""select"",""select""]","[""stimuli/c3_sub4.jpg"",""stimuli/c3_bas4.jpg"",""stimuli/c3_bas3.jpg"",""stimuli/c3_sub5.jpg""]","25107"
"","","html-button-response","7","2.0.0","65117","p0dl5tzjk4h","Beaver","","","","","<img src=""stimuli/c1_sub1.jpg"" style=""width:200px;height:200px;""> 
              <p>Here is a mep. Can you give Mr. Frog all the other meps?</p>
              <p>Click on all of the meps below. If you change your mind, you can unselect any image.</p>
              <p>Click the Submit button when you are done selecting all the meps.</p>","","1-item","vegetables","one-subordinate","[""stimuli/c1_sub5.jpg"",""stimuli/c1_sub4.jpg"",""stimuli/c1_bas4.jpg"",""stimuli/c1_bas3.jpg""]","[1,13,20,19]","[2952,5054,6546,7417]","[""select"",""select"",""select"",""select""]","[""stimuli/c1_sub5.jpg"",""stimuli/c1_sub4.jpg"",""stimuli/c1_bas4.jpg"",""stimuli/c1_bas3.jpg""]","11673"
"","","html-button-response","8","2.0.0","76578","p0dl5tzjk4h","Beaver","","","","","<img src=""stimuli/c2_sub1.jpg"" style=""width:200px;height:200px;""> 
              <p>Here is a zom. Can you give Mr. Frog all the other zoms?</p>
              <p>Click on all of the zoms below. If you change your mind, you can unselect any image.</p>
              <p>Click the Submit button when you are done selecting all the zoms.</p>","","1-item","vehicles","one-subordinate","[""stimuli/c2_sub4.jpg"",""stimuli/c2_bas3.jpg"",""stimuli/c2_bas4.jpg"",""stimuli/c2_sub5.jpg""]","[4,13,6,19]","[3784,6418,7216,9505]","[""select"",""select"",""select"",""select""]","[""stimuli/c2_sub4.jpg"",""stimuli/c2_bas3.jpg"",""stimuli/c2_bas4.jpg"",""stimuli/c2_sub5.jpg""]","11455"
"","","html-button-response","9","2.0.0","92753","p0dl5tzjk4h","Beaver","","","","","<img src=""stimuli/c1_sub1.jpg"" style=""width:200px;height:200px; margin: 5px;""><img src=""stimuli/c1_sup1.jpg"" style=""width:200px;height:200px; margin: 5px;""><img src=""stimuli/c1_sup2.jpg"" style=""width:200px;height:200px; margin: 5px;""><p>Here are some rifs. Can you give Mr. Frog all the other rifs?</p>
                                 <p>Click on all of the rifs below. If you change your mind, you can unselect any image.</p>
                                 <p>Click the Submit button when you are done selecting all the rifs.</p>","","3-item","vegetables","superordinate","[""stimuli/c1_sup3.jpg"",""stimuli/c1_bas3.jpg"",""stimuli/c1_bas4.jpg"",""stimuli/c1_sub5.jpg"",""stimuli/c1_sub4.jpg"",""stimuli/c1_sup5.jpg"",""stimuli/c1_sup6.jpg"",""stimuli/c1_sup4.jpg""]","[1,0,4,11,9,15,22,18]","[7635,8391,9499,10170,11064,12397,13662,14780]","[""select"",""select"",""select"",""select"",""select"",""select"",""select"",""select""]","[""stimuli/c1_sup3.jpg"",""stimuli/c1_bas3.jpg"",""stimuli/c1_bas4.jpg"",""stimuli/c1_sub5.jpg"",""stimuli/c1_sub4.jpg"",""stimuli/c1_sup5.jpg"",""stimuli/c1_sup6.jpg"",""stimuli/c1_sup4.jpg""]","16168"
"","","html-button-response","10","2.0.0","106678","p0dl5tzjk4h","Beaver","","","","","<img src=""stimuli/c2_sub1.jpg"" style=""width:200px;height:200px; margin: 5px;""><img src=""stimuli/c2_sub2.jpg"" style=""width:200px;height:200px; margin: 5px;""><img src=""stimuli/c2_sub3.jpg"" style=""width:200px;height:200px; margin: 5px;""><p>Here are some zoms. Can you give Mr. Frog all the other zoms?</p>
                                 <p>Click on all of the zoms below. If you change your mind, you can unselect any image.</p>
                                 <p>Click the Submit button when you are done selecting all the zoms.</p>","","3-item","vehicles","subordinate","[""stimuli/c2_sub4.jpg"",""stimuli/c2_sub5.jpg""]","[5,9]","[6939,8868]","[""select"",""select""]","[""stimuli/c2_sub4.jpg"",""stimuli/c2_sub5.jpg""]","13918"
"","","html-button-response","11","2.0.0","117852","p0dl5tzjk4h","Beaver","","","","","<img src=""stimuli/c2_bas1.jpg"" style=""width:200px;height:200px; margin: 5px;""><img src=""stimuli/c2_sub1.jpg"" style=""width:200px;height:200px; margin: 5px;""><img src=""stimuli/c2_bas2.jpg"" style=""width:200px;height:200px; margin: 5px;""><p>Here are some sibs. Can you give Mr. Frog all the other sibs?</p>
                                 <p>Click on all of the sibs below. If you change your mind, you can unselect any image.</p>
                                 <p>Click the Submit button when you are done selecting all the sibs.</p>","","3-item","vehicles","basic","[""stimuli/c2_sub4.jpg"",""stimuli/c2_bas4.jpg"",""stimuli/c2_bas3.jpg"",""stimuli/c2_sub5.jpg""]","[8,4,15,20]","[4523,5468,7271,8802]","[""select"",""select"",""select"",""select""]","[""stimuli/c2_sub4.jpg"",""stimuli/c2_bas4.jpg"",""stimuli/c2_bas3.jpg"",""stimuli/c2_sub5.jpg""]","11168"
"","","html-button-response","12","2.0.0","134674","p0dl5tzjk4h","Beaver","","","","","<img src=""stimuli/c3_sub1.jpg"" style=""width:200px;height:200px; margin: 5px;""><img src=""stimuli/c3_bas1.jpg"" style=""width:200px;height:200px; margin: 5px;""><img src=""stimuli/c3_bas2.jpg"" style=""width:200px;height:200px; margin: 5px;""><p>Here are some wugs. Can you give Mr. Frog all the other wugs?</p>
                                 <p>Click on all of the wugs below. If you change your mind, you can unselect any image.</p>
                                 <p>Click the Submit button when you are done selecting all the wugs.</p>","","3-item","animals","basic","[""stimuli/c3_sub5.jpg"",""stimuli/c3_sub4.jpg"",""stimuli/c3_bas3.jpg"",""stimuli/c3_bas4.jpg""]","[3,5,14,13]","[6693,7882,10351,11020]","[""select"",""select"",""select"",""select""]","[""stimuli/c3_sub5.jpg"",""stimuli/c3_sub4.jpg"",""stimuli/c3_bas3.jpg"",""stimuli/c3_bas4.jpg""]","16815"
"","","html-button-response","13","2.0.0","147298","p0dl5tzjk4h","Beaver","","","","","<img src=""stimuli/c1_sub1.jpg"" style=""width:200px;height:200px; margin: 5px;""><img src=""stimuli/c1_bas2.jpg"" style=""width:200px;height:200px; margin: 5px;""><img src=""stimuli/c1_bas1.jpg"" style=""width:200px;height:200px; margin: 5px;""><p>Here are some tobs. Can you give Mr. Frog all the other tobs?</p>
                                 <p>Click on all of the tobs below. If you change your mind, you can unselect any image.</p>
                                 <p>Click the Submit button when you are done selecting all the tobs.</p>","","3-item","vegetables","basic","[""stimuli/c1_sub5.jpg"",""stimuli/c1_sub4.jpg"",""stimuli/c1_bas3.jpg"",""stimuli/c1_bas4.jpg""]","[3,4,8,23]","[4353,5090,6720,9575]","[""select"",""select"",""select"",""select""]","[""stimuli/c1_sub5.jpg"",""stimuli/c1_sub4.jpg"",""stimuli/c1_bas3.jpg"",""stimuli/c1_bas4.jpg""]","12618"
"","","html-button-response","14","2.0.0","171860","p0dl5tzjk4h","Beaver","","","","","<img src=""stimuli/c2_sub1.jpg"" style=""width:200px;height:200px; margin: 5px;""><img src=""stimuli/c2_sup2.jpg"" style=""width:200px;height:200px; margin: 5px;""><img src=""stimuli/c2_sup1.jpg"" style=""width:200px;height:200px; margin: 5px;""><p>Here are some feps. Can you give Mr. Frog all the other feps?</p>
                                 <p>Click on all of the feps below. If you change your mind, you can unselect any image.</p>
                                 <p>Click the Submit button when you are done selecting all the feps.</p>","","3-item","vehicles","superordinate","[""stimuli/c2_bas3.jpg"",""stimuli/c2_sup3.jpg"",""stimuli/c2_sub5.jpg"",""stimuli/c2_sup6.jpg"",""stimuli/c2_sup4.jpg"",""stimuli/c2_bas4.jpg"",""stimuli/c2_sub4.jpg"",""stimuli/c2_sup5.jpg""]","[16,5,12,18,21,22,23,6]","[13578,14671,16079,17706,19055,19684,20369,22324]","[""select"",""select"",""select"",""select"",""select"",""select"",""select"",""select""]","[""stimuli/c2_bas3.jpg"",""stimuli/c2_sup3.jpg"",""stimuli/c2_sub5.jpg"",""stimuli/c2_sup6.jpg"",""stimuli/c2_sup4.jpg"",""stimuli/c2_bas4.jpg"",""stimuli/c2_sub4.jpg"",""stimuli/c2_sup5.jpg""]","24556"
"","","html-button-response","15","2.0.0","185209","p0dl5tzjk4h","Beaver","","","","","<img src=""stimuli/c3_sup1.jpg"" style=""width:200px;height:200px; margin: 5px;""><img src=""stimuli/c3_sup2.jpg"" style=""width:200px;height:200px; margin: 5px;""><img src=""stimuli/c3_sub1.jpg"" style=""width:200px;height:200px; margin: 5px;""><p>Here are some rabs. Can you give Mr. Frog all the other rabs?</p>
                                 <p>Click on all of the rabs below. If you change your mind, you can unselect any image.</p>
                                 <p>Click the Submit button when you are done selecting all the rabs.</p>","","3-item","animals","superordinate","[""stimuli/c3_sup4.jpg"",""stimuli/c3_sub4.jpg"",""stimuli/c3_bas3.jpg"",""stimuli/c3_sub5.jpg"",""stimuli/c3_sup6.jpg"",""stimuli/c3_sup5.jpg"",""stimuli/c3_bas4.jpg"",""stimuli/c3_sup3.jpg""]","[4,9,15,13,12,18,22,21]","[5940,6740,7542,8452,9185,10439,11795,12473]","[""select"",""select"",""select"",""select"",""select"",""select"",""select"",""select""]","[""stimuli/c3_sup4.jpg"",""stimuli/c3_sub4.jpg"",""stimuli/c3_bas3.jpg"",""stimuli/c3_sub5.jpg"",""stimuli/c3_sup6.jpg"",""stimuli/c3_sup5.jpg"",""stimuli/c3_bas4.jpg"",""stimuli/c3_sup3.jpg""]","13342"
"","","html-button-response","16","2.0.0","195360","p0dl5tzjk4h","Beaver","","","","","<img src=""stimuli/c3_sub2.jpg"" style=""width:200px;height:200px; margin: 5px;""><img src=""stimuli/c3_sub3.jpg"" style=""width:200px;height:200px; margin: 5px;""><img src=""stimuli/c3_sub1.jpg"" style=""width:200px;height:200px; margin: 5px;""><p>Here are some tevs. Can you give Mr. Frog all the other tevs?</p>
                                 <p>Click on all of the tevs below. If you change your mind, you can unselect any image.</p>
                                 <p>Click the Submit button when you are done selecting all the tevs.</p>","","3-item","animals","subordinate","[""stimuli/c3_sub4.jpg"",""stimuli/c3_sub5.jpg""]","[9,19]","[7466,8994]","[""select"",""select""]","[""stimuli/c3_sub4.jpg"",""stimuli/c3_sub5.jpg""]","10145"
"","","html-button-response","17","2.0.0","200994","p0dl5tzjk4h","Beaver","","","","","<img src=""stimuli/c1_sub3.jpg"" style=""width:200px;height:200px; margin: 5px;""><img src=""stimuli/c1_sub1.jpg"" style=""width:200px;height:200px; margin: 5px;""><img src=""stimuli/c1_sub2.jpg"" style=""width:200px;height:200px; margin: 5px;""><p>Here are some meps. Can you give Mr. Frog all the other meps?</p>
                                 <p>Click on all of the meps below. If you change your mind, you can unselect any image.</p>
                                 <p>Click the Submit button when you are done selecting all the meps.</p>","","3-item","vegetables","subordinate","[""stimuli/c1_sub4.jpg"",""stimuli/c1_sub5.jpg""]","[1,19]","[1740,3786]","[""select"",""select""]","[""stimuli/c1_sub4.jpg"",""stimuli/c1_sub5.jpg""]","5627"
"","10218","html-keyboard-response","18","2.0.0","211215","p0dl5tzjk4h","Beaver","","","","","
      <p>Thank you for playing! This was a big help for Mr. Frog!</p>
      <img src=""stimuli/mrfrog.png"" alt=""Mr. Frog"" style=""width:300px;height:300px;"">
      <p><i>Debrief</i>: In this experiment, we wanted to see how people learn subordinate word meanings (e.g., “dalmatian”) when</p>
      <p>superordinate (e.g., “animal”) and basic-level (e.g., “dog”) meanings can also be reasonable label referents.</p>
      <p>We thought that when presented with three subordinate exemplars (aka the trials with three images), a word will be generalized</p>
      <p>to the subordinate level more often than when presented with one subordinate exemplar (aka the trials with one image).</p>
      <p><b>*Please press any key to save data.*</b></p>
  "," ","","","","","","","","",""
