"success","rt","trial_type","trial_index","plugin_version","time_elapsed","random_id","participant","timeout","failed_images","failed_audio","failed_video","stimulus","response","condition","category","level","selection_array","selection_index","rt_array","selection_type_array","final_choice_array","final_rt"
"true","1114","fullscreen","0","null","2118","p0go4ncrpwf","panda","","","","","","","","","","","","","","",""
"true","","preload","1","2.0.0","2989","p0go4ncrpwf","panda","false","[]","[]","[]","","","","","","","","","","",""
"","1187","html-keyboard-response","2","2.0.0","4176","p0go4ncrpwf","panda","","","","","Welcome to the experiment. Press any key to begin.","Enter","","","","","","","","",""
"","6919","survey-text","3","2.0.0","11103","p0go4ncrpwf","panda","","","","","","{""participant_id"":""panda""}","","","","","","","","",""
"","10041","html-keyboard-response","4","2.0.0","21145","p0go4ncrpwf","panda","","","","","
  <p><b>This is Mr. Frog!</b></p>
  <img src=""stimuli/mrfrog.png"" alt=""Mr. Frog"" style=""width:300px;height:300px;"">
  <p>He speaks a different language and needs help finding the items he wants. Can you help Mr. Frog?</p>
  <p>Press any key to move to the next page.</p>
","Enter","","","","","","","","",""
"","9443","html-keyboard-response","5","2.0.0","30590","p0go4ncrpwf","panda","","","","","
  <img src=""stimuli/mrfrog.png"" alt=""Mr. Frog"" style=""width:300px;height:300px;"">
  <p>In each trial, you will be shown an image that will be labeled with a word in the language that Mr. Frog speaks. </p>
  <p>Your job will be to select all the items that you think matches what Mr. Frog is asking for. </p>
  <p>Press any key to begin.</p>
","Enter","","","","","","","","",""
"","","html-button-response","6","2.0.0","52986","p0go4ncrpwf","panda","","","","","<img src=""stimuli/c2_sub1.jpg"" style=""width:200px;height:200px;""> 
              <p>Here is a tob. Can you give Mr. Frog all the other tobs?</p>
              <p>Click on all of the tobs below. If you change your mind, you can unselect any image.</p>
              <p>Click the Submit button when you are done selecting all the tobs.</p>","","1-item","vehicles","one-subordinate","[""stimuli/c1_sup3.jpg""]","[16]","[21341]","[""select""]","[""stimuli/c1_sup3.jpg""]","22392"
"","","html-button-response","7","2.0.0","66636","p0go4ncrpwf","panda","","","","","<img src=""stimuli/c3_sub1.jpg"" style=""width:200px;height:200px;""> 
              <p>Here is a fep. Can you give Mr. Frog all the other feps?</p>
              <p>Click on all of the feps below. If you change your mind, you can unselect any image.</p>
              <p>Click the Submit button when you are done selecting all the feps.</p>","","1-item","animals","one-subordinate","[""stimuli/c3_sup6.jpg""]","[17]","[12417]","[""select""]","[""stimuli/c3_sup6.jpg""]","13647"
"","","html-button-response","8","2.0.0","73824","p0go4ncrpwf","panda","","","","","<img src=""stimuli/c1_sub1.jpg"" style=""width:200px;height:200px;""> 
              <p>Here is a sib. Can you give Mr. Frog all the other sibs?</p>
              <p>Click on all of the sibs below. If you change your mind, you can unselect any image.</p>
              <p>Click the Submit button when you are done selecting all the sibs.</p>","","1-item","vegetables","one-subordinate","[""stimuli/c1_sub4.jpg"",""stimuli/c1_sub5.jpg"",""stimuli/c1_bas3.jpg"",""stimuli/c1_bas4.jpg""]","[1,2,3,19]","[3163,3601,4035,5918]","[""select"",""select"",""select"",""select""]","[""stimuli/c1_sub4.jpg"",""stimuli/c1_sub5.jpg"",""stimuli/c1_bas3.jpg"",""stimuli/c1_bas4.jpg""]","7186"
"","","html-button-response","9","2.0.0","87323","p0go4ncrpwf","panda","","","","","<img src=""stimuli/c2_bas1.jpg"" style=""width:200px;height:200px; margin: 5px;""><img src=""stimuli/c2_sub1.jpg"" style=""width:200px;height:200px; margin: 5px;""><img src=""stimuli/c2_bas2.jpg"" style=""width:200px;height:200px; margin: 5px;""><p>Here are some meps. Can you give Mr. Frog all the other meps?</p>
                                 <p>Click on all of the meps below. If you change your mind, you can unselect any image.</p>
                                 <p>Click the Submit button when you are done selecting all the meps.</p>","","3-item","vehicles","basic","[""stimuli/c2_sup5.jpg"",""stimuli/c2_sup3.jpg"",""stimuli/c2_sup5.jpg"",""stimuli/c2_sup4.jpg""]","[6,7,6,15]","[4480,5798,6382,8771]","[""select"",""select"",""unselect"",""select""]","[""stimuli/c2_sup3.jpg"",""stimuli/c2_sup4.jpg""]","13495"
"","","html-button-response","10","2.0.0","100956","p0go4ncrpwf","panda","","","","","<img src=""stimuli/c1_bas1.jpg"" style=""width:200px;height:200px; margin: 5px;""><img src=""stimuli/c1_sub1.jpg"" style=""width:200px;height:200px; margin: 5px;""><img src=""stimuli/c1_bas2.jpg"" style=""width:200px;height:200px; margin: 5px;""><p>Here are some zoms. Can you give Mr. Frog all the other zoms?</p>
                                 <p>Click on all of the zoms below. If you change your mind, you can unselect any image.</p>
                                 <p>Click the Submit button when you are done selecting all the zoms.</p>","","3-item","vegetables","basic","[""stimuli/c1_sup6.jpg"",""stimuli/c2_sup3.jpg"",""stimuli/c3_sup6.jpg"",""stimuli/c3_sup4.jpg"",""stimuli/c3_sup4.jpg"",""stimuli/c3_sup6.jpg"",""stimuli/c2_sup3.jpg"",""stimuli/c1_sup6.jpg"",""stimuli/c1_sup6.jpg""]","[3,2,1,0,0,1,2,3,3]","[3968,4413,4881,5247,5680,6084,7097,8864,10530]","[""select"",""select"",""select"",""select"",""unselect"",""unselect"",""unselect"",""unselect"",""select""]","[""stimuli/c1_sup6.jpg""]","13630"
"","","html-button-response","11","2.0.0","104956","p0go4ncrpwf","panda","","","","","<img src=""stimuli/c2_sub3.jpg"" style=""width:200px;height:200px; margin: 5px;""><img src=""stimuli/c2_sub1.jpg"" style=""width:200px;height:200px; margin: 5px;""><img src=""stimuli/c2_sub2.jpg"" style=""width:200px;height:200px; margin: 5px;""><p>Here are some tobs. Can you give Mr. Frog all the other tobs?</p>
                                 <p>Click on all of the tobs below. If you change your mind, you can unselect any image.</p>
                                 <p>Click the Submit button when you are done selecting all the tobs.</p>","","3-item","vehicles","subordinate","[""stimuli/c2_sup4.jpg""]","[12]","[2798]","[""select""]","[""stimuli/c2_sup4.jpg""]","3997"
"","","html-button-response","12","2.0.0","110006","p0go4ncrpwf","panda","","","","","<img src=""stimuli/c2_sup1.jpg"" style=""width:200px;height:200px; margin: 5px;""><img src=""stimuli/c2_sup2.jpg"" style=""width:200px;height:200px; margin: 5px;""><img src=""stimuli/c2_sub1.jpg"" style=""width:200px;height:200px; margin: 5px;""><p>Here are some rifs. Can you give Mr. Frog all the other rifs?</p>
                                 <p>Click on all of the rifs below. If you change your mind, you can unselect any image.</p>
                                 <p>Click the Submit button when you are done selecting all the rifs.</p>","","3-item","vehicles","superordinate","[""stimuli/c3_bas3.jpg""]","[23]","[3682]","[""select""]","[""stimuli/c3_bas3.jpg""]","5047"
"","","html-button-response","13","2.0.0","128243","p0go4ncrpwf","panda","","","","","<img src=""stimuli/c1_sup2.jpg"" style=""width:200px;height:200px; margin: 5px;""><img src=""stimuli/c1_sub1.jpg"" style=""width:200px;height:200px; margin: 5px;""><img src=""stimuli/c1_sup1.jpg"" style=""width:200px;height:200px; margin: 5px;""><p>Here are some tevs. Can you give Mr. Frog all the other tevs?</p>
                                 <p>Click on all of the tevs below. If you change your mind, you can unselect any image.</p>
                                 <p>Click the Submit button when you are done selecting all the tevs.</p>","","3-item","vegetables","superordinate","[""stimuli/c1_sup4.jpg"",""stimuli/c1_sup3.jpg"",""stimuli/c1_sub5.jpg"",""stimuli/c1_bas3.jpg"",""stimuli/c1_sub4.jpg"",""stimuli/c1_bas4.jpg"",""stimuli/c1_sup5.jpg""]","[7,0,1,3,16,20,18]","[9309,10095,11214,11979,12548,14181,17082]","[""select"",""select"",""select"",""select"",""select"",""select"",""select""]","[""stimuli/c1_sup4.jpg"",""stimuli/c1_sup3.jpg"",""stimuli/c1_sub5.jpg"",""stimuli/c1_bas3.jpg"",""stimuli/c1_sub4.jpg"",""stimuli/c1_bas4.jpg"",""stimuli/c1_sup5.jpg""]","18234"
"","","html-button-response","14","2.0.0","135406","p0go4ncrpwf","panda","","","","","<img src=""stimuli/c3_sub2.jpg"" style=""width:200px;height:200px; margin: 5px;""><img src=""stimuli/c3_sub1.jpg"" style=""width:200px;height:200px; margin: 5px;""><img src=""stimuli/c3_sub3.jpg"" style=""width:200px;height:200px; margin: 5px;""><p>Here are some feps. Can you give Mr. Frog all the other feps?</p>
                                 <p>Click on all of the feps below. If you change your mind, you can unselect any image.</p>
                                 <p>Click the Submit button when you are done selecting all the feps.</p>","","3-item","animals","subordinate","[""stimuli/c3_sub5.jpg"",""stimuli/c3_bas4.jpg"",""stimuli/c3_sub4.jpg"",""stimuli/c3_bas3.jpg""]","[7,14,21,4]","[2526,3709,4476,5695]","[""select"",""select"",""select"",""select""]","[""stimuli/c3_sub5.jpg"",""stimuli/c3_bas4.jpg"",""stimuli/c3_sub4.jpg"",""stimuli/c3_bas3.jpg""]","7159"
"","","html-button-response","15","2.0.0","146500","p0go4ncrpwf","panda","","","","","<img src=""stimuli/c3_sup1.jpg"" style=""width:200px;height:200px; margin: 5px;""><img src=""stimuli/c3_sub1.jpg"" style=""width:200px;height:200px; margin: 5px;""><img src=""stimuli/c3_sup2.jpg"" style=""width:200px;height:200px; margin: 5px;""><p>Here are some rabs. Can you give Mr. Frog all the other rabs?</p>
                                 <p>Click on all of the rabs below. If you change your mind, you can unselect any image.</p>
                                 <p>Click the Submit button when you are done selecting all the rabs.</p>","","3-item","animals","superordinate","[""stimuli/c3_sub4.jpg"",""stimuli/c3_sup3.jpg"",""stimuli/c3_sup5.jpg"",""stimuli/c3_bas3.jpg"",""stimuli/c3_bas4.jpg"",""stimuli/c3_sup4.jpg"",""stimuli/c3_sub5.jpg"",""stimuli/c3_sup6.jpg""]","[6,8,3,4,14,12,18,22]","[6264,6815,7412,7831,8419,9380,9764,10365]","[""select"",""select"",""select"",""select"",""select"",""select"",""select"",""select""]","[""stimuli/c3_sub4.jpg"",""stimuli/c3_sup3.jpg"",""stimuli/c3_sup5.jpg"",""stimuli/c3_bas3.jpg"",""stimuli/c3_bas4.jpg"",""stimuli/c3_sup4.jpg"",""stimuli/c3_sub5.jpg"",""stimuli/c3_sup6.jpg""]","11096"
"","","html-button-response","16","2.0.0","153097","p0go4ncrpwf","panda","","","","","<img src=""stimuli/c1_sub3.jpg"" style=""width:200px;height:200px; margin: 5px;""><img src=""stimuli/c1_sub1.jpg"" style=""width:200px;height:200px; margin: 5px;""><img src=""stimuli/c1_sub2.jpg"" style=""width:200px;height:200px; margin: 5px;""><p>Here are some sibs. Can you give Mr. Frog all the other sibs?</p>
                                 <p>Click on all of the sibs below. If you change your mind, you can unselect any image.</p>
                                 <p>Click the Submit button when you are done selecting all the sibs.</p>","","3-item","vegetables","subordinate","[""stimuli/c1_bas3.jpg"",""stimuli/c1_sub5.jpg"",""stimuli/c1_bas4.jpg"",""stimuli/c1_sub4.jpg""]","[7,12,5,23]","[1518,2033,4520,5214]","[""select"",""select"",""select"",""select""]","[""stimuli/c1_bas3.jpg"",""stimuli/c1_sub5.jpg"",""stimuli/c1_bas4.jpg"",""stimuli/c1_sub4.jpg""]","6597"
"","","html-button-response","17","2.0.0","159993","p0go4ncrpwf","panda","","","","","<img src=""stimuli/c3_bas1.jpg"" style=""width:200px;height:200px; margin: 5px;""><img src=""stimuli/c3_bas2.jpg"" style=""width:200px;height:200px; margin: 5px;""><img src=""stimuli/c3_sub1.jpg"" style=""width:200px;height:200px; margin: 5px;""><p>Here are some wugs. Can you give Mr. Frog all the other wugs?</p>
                                 <p>Click on all of the wugs below. If you change your mind, you can unselect any image.</p>
                                 <p>Click the Submit button when you are done selecting all the wugs.</p>","","3-item","animals","basic","[""stimuli/c3_bas4.jpg"",""stimuli/c3_sup4.jpg"",""stimuli/c3_bas3.jpg"",""stimuli/c3_sub5.jpg"",""stimuli/c3_sub4.jpg""]","[1,0,22,19,10]","[2389,2781,5032,5583,6231]","[""select"",""select"",""select"",""select"",""select""]","[""stimuli/c3_bas4.jpg"",""stimuli/c3_sup4.jpg"",""stimuli/c3_bas3.jpg"",""stimuli/c3_sub5.jpg"",""stimuli/c3_sub4.jpg""]","6895"
"","8389","html-keyboard-response","18","2.0.0","168384","p0go4ncrpwf","panda","","","","","
      <p>Thank you for playing! This was a big help for Mr. Frog!</p>
      <img src=""stimuli/mrfrog.png"" alt=""Mr. Frog"" style=""width:300px;height:300px;"">
      <p><i>Debrief</i>: In this experiment, we wanted to see how people learn subordinate word meanings (e.g., “dalmatian”) when</p>
      <p>superordinate (e.g., “animal”) and basic-level (e.g., “dog”) meanings can also be reasonable label referents.</p>
      <p>We thought that when presented with three subordinate exemplars (aka the trials with three images), a word will be generalized</p>
      <p>to the subordinate level more often than when presented with one subordinate exemplar (aka the trials with one image).</p>
      <p><b>*Please press any key to save data.*</b></p>
  ","Enter","","","","","","","","",""
