"success","rt","trial_type","trial_index","plugin_version","time_elapsed","random_id","participant","timeout","failed_images","failed_audio","failed_video","stimulus","response","condition","category","level","selection_array","selection_index","rt_array","selection_type_array","final_choice_array","final_rt"
"true","1047","fullscreen","0","null","2063","p9mqf1fkco8","manatee","","","","","","","","","","","","","","",""
"true","","preload","1","2.0.0","2482","p9mqf1fkco8","manatee","false","[]","[]","[]","","","","","","","","","","",""
"","555","html-keyboard-response","2","2.0.0","3038","p9mqf1fkco8","manatee","","","","","Welcome to the experiment. Press any key to begin.","Enter","","","","","","","","",""
"","2663","survey-text","3","2.0.0","5707","p9mqf1fkco8","manatee","","","","","","{""participant_id"":""manatee""}","","","","","","","","",""
"","8591","html-keyboard-response","4","2.0.0","14300","p9mqf1fkco8","manatee","","","","","
  <p><b>This is Mr. Frog!</b></p>
  <img src=""stimuli/mrfrog.png"" alt=""Mr. Frog"" style=""width:300px;height:300px;"">
  <p>He speaks a different language and needs help finding the items he wants. Can you help Mr. Frog?</p>
  <p>Press any key to move to the next page.</p>
","Enter","","","","","","","","",""
"","10603","html-keyboard-response","5","2.0.0","24905","p9mqf1fkco8","manatee","","","","","
  <img src=""stimuli/mrfrog.png"" alt=""Mr. Frog"" style=""width:300px;height:300px;"">
  <p>In each trial, you will be shown an image that will be labeled with a word in the language that Mr. Frog speaks. </p>
  <p>Your job will be to select all the items that you think matches what Mr. Frog is asking for. </p>
  <p>Press any key to begin.</p>
","Enter","","","","","","","","",""
"","","html-button-response","6","2.0.0","55027","p9mqf1fkco8","manatee","","","","","<img src=""stimuli/c1_sub1.jpg"" style=""width:200px;height:200px;""> 
              <p>Here is a sib. Can you give Mr. Frog all the other sibs?</p>
              <p>Click on all of the sibs below. If you change your mind, you can unselect any image.</p>
              <p>Click the Submit button when you are done selecting all the sibs.</p>","","1-item","vegetables","one-subordinate","[""stimuli/c1_sub5.jpg"",""stimuli/c1_sub4.jpg"",""stimuli/c1_bas4.jpg"",""stimuli/c1_bas3.jpg""]","[0,2,8,6]","[8099,9402,10191,14367]","[""select"",""select"",""select"",""select""]","[""stimuli/c1_sub5.jpg"",""stimuli/c1_sub4.jpg"",""stimuli/c1_bas4.jpg"",""stimuli/c1_bas3.jpg""]","30114"
"","","html-button-response","7","2.0.0","70024","p9mqf1fkco8","manatee","","","","","<img src=""stimuli/c3_sub1.jpg"" style=""width:200px;height:200px;""> 
              <p>Here is a tob. Can you give Mr. Frog all the other tobs?</p>
              <p>Click on all of the tobs below. If you change your mind, you can unselect any image.</p>
              <p>Click the Submit button when you are done selecting all the tobs.</p>","","1-item","animals","one-subordinate","[""stimuli/c3_sub4.jpg"",""stimuli/c3_bas4.jpg"",""stimuli/c3_sub5.jpg"",""stimuli/c3_bas4.jpg"",""stimuli/c3_bas4.jpg"",""stimuli/c3_bas3.jpg""]","[5,4,9,4,4,20]","[3395,4132,5018,6495,7354,10187]","[""select"",""select"",""select"",""unselect"",""select"",""select""]","[""stimuli/c3_sub4.jpg"",""stimuli/c3_sub5.jpg"",""stimuli/c3_bas4.jpg"",""stimuli/c3_bas3.jpg""]","14984"
"","","html-button-response","8","2.0.0","80721","p9mqf1fkco8","manatee","","","","","<img src=""stimuli/c2_sub1.jpg"" style=""width:200px;height:200px;""> 
              <p>Here is a zom. Can you give Mr. Frog all the other zoms?</p>
              <p>Click on all of the zoms below. If you change your mind, you can unselect any image.</p>
              <p>Click the Submit button when you are done selecting all the zoms.</p>","","1-item","vehicles","one-subordinate","[""stimuli/c2_sub4.jpg"",""stimuli/c2_bas3.jpg"",""stimuli/c2_bas4.jpg"",""stimuli/c2_sub5.jpg""]","[9,10,12,19]","[2326,3240,4346,5432]","[""select"",""select"",""select"",""select""]","[""stimuli/c2_sub4.jpg"",""stimuli/c2_bas3.jpg"",""stimuli/c2_bas4.jpg"",""stimuli/c2_sub5.jpg""]","10666"
"","","html-button-response","9","2.0.0","97178","p9mqf1fkco8","manatee","","","","","<img src=""stimuli/c3_sub3.jpg"" style=""width:200px;height:200px; margin: 5px;""><img src=""stimuli/c3_sub2.jpg"" style=""width:200px;height:200px; margin: 5px;""><img src=""stimuli/c3_sub1.jpg"" style=""width:200px;height:200px; margin: 5px;""><p>Here are some tobs. Can you give Mr. Frog all the other tobs?</p>
                                 <p>Click on all of the tobs below. If you change your mind, you can unselect any image.</p>
                                 <p>Click the Submit button when you are done selecting all the tobs.</p>","","3-item","animals","subordinate","[""stimuli/c3_sub4.jpg"",""stimuli/c3_sub5.jpg""]","[20,19]","[5805,6644]","[""select"",""select""]","[""stimuli/c3_sub4.jpg"",""stimuli/c3_sub5.jpg""]","16448"
"","","html-button-response","10","2.0.0","111464","p9mqf1fkco8","manatee","","","","","<img src=""stimuli/c1_bas1.jpg"" style=""width:200px;height:200px; margin: 5px;""><img src=""stimuli/c1_bas2.jpg"" style=""width:200px;height:200px; margin: 5px;""><img src=""stimuli/c1_sub1.jpg"" style=""width:200px;height:200px; margin: 5px;""><p>Here are some feps. Can you give Mr. Frog all the other feps?</p>
                                 <p>Click on all of the feps below. If you change your mind, you can unselect any image.</p>
                                 <p>Click the Submit button when you are done selecting all the feps.</p>","","3-item","vegetables","basic","[""stimuli/c1_bas3.jpg"",""stimuli/c1_sub5.jpg"",""stimuli/c1_sub4.jpg"",""stimuli/c1_bas4.jpg""]","[2,14,7,16]","[3371,6152,6869,8519]","[""select"",""select"",""select"",""select""]","[""stimuli/c1_bas3.jpg"",""stimuli/c1_sub5.jpg"",""stimuli/c1_sub4.jpg"",""stimuli/c1_bas4.jpg""]","14277"
"","","html-button-response","11","2.0.0","131885","p9mqf1fkco8","manatee","","","","","<img src=""stimuli/c3_bas1.jpg"" style=""width:200px;height:200px; margin: 5px;""><img src=""stimuli/c3_bas2.jpg"" style=""width:200px;height:200px; margin: 5px;""><img src=""stimuli/c3_sub1.jpg"" style=""width:200px;height:200px; margin: 5px;""><p>Here are some rifs. Can you give Mr. Frog all the other rifs?</p>
                                 <p>Click on all of the rifs below. If you change your mind, you can unselect any image.</p>
                                 <p>Click the Submit button when you are done selecting all the rifs.</p>","","3-item","animals","basic","[""stimuli/c3_bas3.jpg"",""stimuli/c3_sub4.jpg"",""stimuli/c3_bas4.jpg"",""stimuli/c3_sub5.jpg""]","[10,16,13,19]","[11962,15179,16533,17655]","[""select"",""select"",""select"",""select""]","[""stimuli/c3_bas3.jpg"",""stimuli/c3_sub4.jpg"",""stimuli/c3_bas4.jpg"",""stimuli/c3_sub5.jpg""]","20414"
"","","html-button-response","12","2.0.0","157216","p9mqf1fkco8","manatee","","","","","<img src=""stimuli/c2_sup1.jpg"" style=""width:200px;height:200px; margin: 5px;""><img src=""stimuli/c2_sup2.jpg"" style=""width:200px;height:200px; margin: 5px;""><img src=""stimuli/c2_sub1.jpg"" style=""width:200px;height:200px; margin: 5px;""><p>Here are some rabs. Can you give Mr. Frog all the other rabs?</p>
                                 <p>Click on all of the rabs below. If you change your mind, you can unselect any image.</p>
                                 <p>Click the Submit button when you are done selecting all the rabs.</p>","","3-item","vehicles","superordinate","[""stimuli/c2_sup6.jpg"",""stimuli/c2_bas3.jpg"",""stimuli/c2_sub5.jpg"",""stimuli/c2_sup4.jpg"",""stimuli/c2_sup5.jpg"",""stimuli/c2_sup5.jpg"",""stimuli/c2_sub4.jpg"",""stimuli/c2_sup5.jpg"",""stimuli/c2_bas4.jpg""]","[11,5,4,9,6,6,13,6,15]","[6660,7674,8444,12467,13626,15110,16211,18912,20823]","[""select"",""select"",""select"",""select"",""select"",""unselect"",""select"",""select"",""select""]","[""stimuli/c2_sup6.jpg"",""stimuli/c2_bas3.jpg"",""stimuli/c2_sub5.jpg"",""stimuli/c2_sup4.jpg"",""stimuli/c2_sub4.jpg"",""stimuli/c2_sup5.jpg"",""stimuli/c2_bas4.jpg""]","25320"
"","","html-button-response","13","2.0.0","166497","p9mqf1fkco8","manatee","","","","","<img src=""stimuli/c2_sub3.jpg"" style=""width:200px;height:200px; margin: 5px;""><img src=""stimuli/c2_sub2.jpg"" style=""width:200px;height:200px; margin: 5px;""><img src=""stimuli/c2_sub1.jpg"" style=""width:200px;height:200px; margin: 5px;""><p>Here are some zoms. Can you give Mr. Frog all the other zoms?</p>
                                 <p>Click on all of the zoms below. If you change your mind, you can unselect any image.</p>
                                 <p>Click the Submit button when you are done selecting all the zoms.</p>","","3-item","vehicles","subordinate","[""stimuli/c2_sub5.jpg"",""stimuli/c2_bas4.jpg"",""stimuli/c2_bas3.jpg"",""stimuli/c2_sub4.jpg""]","[4,5,11,23]","[2296,3723,4193,5829]","[""select"",""select"",""select"",""select""]","[""stimuli/c2_sub5.jpg"",""stimuli/c2_bas4.jpg"",""stimuli/c2_bas3.jpg"",""stimuli/c2_sub4.jpg""]","9247"
"","","html-button-response","14","2.0.0","178468","p9mqf1fkco8","manatee","","","","","<img src=""stimuli/c2_bas1.jpg"" style=""width:200px;height:200px; margin: 5px;""><img src=""stimuli/c2_bas2.jpg"" style=""width:200px;height:200px; margin: 5px;""><img src=""stimuli/c2_sub1.jpg"" style=""width:200px;height:200px; margin: 5px;""><p>Here are some wugs. Can you give Mr. Frog all the other wugs?</p>
                                 <p>Click on all of the wugs below. If you change your mind, you can unselect any image.</p>
                                 <p>Click the Submit button when you are done selecting all the wugs.</p>","","3-item","vehicles","basic","[""stimuli/c2_bas3.jpg"",""stimuli/c2_sub5.jpg"",""stimuli/c2_sub4.jpg"",""stimuli/c2_bas4.jpg""]","[15,10,17,19]","[5478,6775,7430,9366]","[""select"",""select"",""select"",""select""]","[""stimuli/c2_bas3.jpg"",""stimuli/c2_sub5.jpg"",""stimuli/c2_sub4.jpg"",""stimuli/c2_bas4.jpg""]","11941"
"","","html-button-response","15","2.0.0","191250","p9mqf1fkco8","manatee","","","","","<img src=""stimuli/c3_sub1.jpg"" style=""width:200px;height:200px; margin: 5px;""><img src=""stimuli/c3_sup2.jpg"" style=""width:200px;height:200px; margin: 5px;""><img src=""stimuli/c3_sup1.jpg"" style=""width:200px;height:200px; margin: 5px;""><p>Here are some tevs. Can you give Mr. Frog all the other tevs?</p>
                                 <p>Click on all of the tevs below. If you change your mind, you can unselect any image.</p>
                                 <p>Click the Submit button when you are done selecting all the tevs.</p>","","3-item","animals","superordinate","[""stimuli/c3_bas3.jpg"",""stimuli/c3_sup5.jpg"",""stimuli/c3_sup6.jpg"",""stimuli/c3_bas4.jpg"",""stimuli/c3_sub4.jpg"",""stimuli/c3_sub5.jpg"",""stimuli/c3_sup3.jpg"",""stimuli/c3_sup4.jpg""]","[4,1,7,16,15,19,22,12]","[2615,3272,3498,5805,6058,6596,7026,8377]","[""select"",""select"",""select"",""select"",""select"",""select"",""select"",""select""]","[""stimuli/c3_bas3.jpg"",""stimuli/c3_sup5.jpg"",""stimuli/c3_sup6.jpg"",""stimuli/c3_bas4.jpg"",""stimuli/c3_sub4.jpg"",""stimuli/c3_sub5.jpg"",""stimuli/c3_sup3.jpg"",""stimuli/c3_sup4.jpg""]","12775"
"","","html-button-response","16","2.0.0","199856","p9mqf1fkco8","manatee","","","","","<img src=""stimuli/c1_sup1.jpg"" style=""width:200px;height:200px; margin: 5px;""><img src=""stimuli/c1_sup2.jpg"" style=""width:200px;height:200px; margin: 5px;""><img src=""stimuli/c1_sub1.jpg"" style=""width:200px;height:200px; margin: 5px;""><p>Here are some meps. Can you give Mr. Frog all the other meps?</p>
                                 <p>Click on all of the meps below. If you change your mind, you can unselect any image.</p>
                                 <p>Click the Submit button when you are done selecting all the meps.</p>","","3-item","vegetables","superordinate","[""stimuli/c1_bas3.jpg"",""stimuli/c1_sup6.jpg"",""stimuli/c1_sub5.jpg"",""stimuli/c1_sup3.jpg"",""stimuli/c1_bas4.jpg"",""stimuli/c1_sup5.jpg"",""stimuli/c1_sup4.jpg"",""stimuli/c1_sub4.jpg""]","[2,9,8,11,17,13,19,20]","[2240,2629,2895,3271,4345,4894,5897,6206]","[""select"",""select"",""select"",""select"",""select"",""select"",""select"",""select""]","[""stimuli/c1_bas3.jpg"",""stimuli/c1_sup6.jpg"",""stimuli/c1_sub5.jpg"",""stimuli/c1_sup3.jpg"",""stimuli/c1_bas4.jpg"",""stimuli/c1_sup5.jpg"",""stimuli/c1_sup4.jpg"",""stimuli/c1_sub4.jpg""]","8599"
"","","html-button-response","17","2.0.0","206271","p9mqf1fkco8","manatee","","","","","<img src=""stimuli/c1_sub1.jpg"" style=""width:200px;height:200px; margin: 5px;""><img src=""stimuli/c1_sub2.jpg"" style=""width:200px;height:200px; margin: 5px;""><img src=""stimuli/c1_sub3.jpg"" style=""width:200px;height:200px; margin: 5px;""><p>Here are some sibs. Can you give Mr. Frog all the other sibs?</p>
                                 <p>Click on all of the sibs below. If you change your mind, you can unselect any image.</p>
                                 <p>Click the Submit button when you are done selecting all the sibs.</p>","","3-item","vegetables","subordinate","[""stimuli/c1_bas4.jpg"",""stimuli/c1_sub4.jpg"",""stimuli/c1_sub5.jpg"",""stimuli/c1_bas3.jpg""]","[4,13,6,18]","[2426,2993,3310,5415]","[""select"",""select"",""select"",""select""]","[""stimuli/c1_bas4.jpg"",""stimuli/c1_sub4.jpg"",""stimuli/c1_sub5.jpg"",""stimuli/c1_bas3.jpg""]","6409"
"","14627","html-keyboard-response","18","2.0.0","220901","p9mqf1fkco8","manatee","","","","","
      <p>Thank you for playing! This was a big help for Mr. Frog!</p>
      <img src=""stimuli/mrfrog.png"" alt=""Mr. Frog"" style=""width:300px;height:300px;"">
      <p><i>Debrief</i>: In this experiment, we wanted to see how people learn subordinate word meanings (e.g., “dalmatian”) when</p>
      <p>superordinate (e.g., “animal”) and basic-level (e.g., “dog”) meanings can also be reasonable label referents.</p>
      <p>We thought that when presented with three subordinate exemplars (aka the trials with three images), a word will be generalized</p>
      <p>to the subordinate level more often than when presented with one subordinate exemplar (aka the trials with one image).</p>
      <p><b>*Please press any key to save data.*</b></p>
  ","Enter","","","","","","","","",""
