"success","rt","trial_type","trial_index","plugin_version","time_elapsed","random_id","participant","timeout","failed_images","failed_audio","failed_video","stimulus","response","condition","category","level","selection_array","selection_index","rt_array","selection_type_array","final_choice_array","final_rt"
"true","5996","fullscreen","0","null","7010","pc8s2khtj20","koala","","","","","","","","","","","","","","",""
"true","","preload","1","2.0.0","7352","pc8s2khtj20","koala","false","[]","[]","[]","","","","","","","","","","",""
"","1281","html-keyboard-response","2","2.0.0","8633","pc8s2khtj20","koala","","","","","Welcome to the experiment. Press any key to begin."," ","","","","","","","","",""
"","3239","survey-text","3","2.0.0","11876","pc8s2khtj20","koala","","","","","","{""participant_id"":""koala""}","","","","","","","","",""
"","6967","html-keyboard-response","4","2.0.0","18845","pc8s2khtj20","koala","","","","","
  <p><b>This is Mr. Frog!</b></p>
  <img src=""stimuli/mrfrog.png"" alt=""Mr. Frog"" style=""width:300px;height:300px;"">
  <p>He speaks a different language and needs help finding the items he wants. Can you help Mr. Frog?</p>
  <p>Press any key to move to the next page.</p>
"," ","","","","","","","","",""
"","6145","html-keyboard-response","5","2.0.0","24991","pc8s2khtj20","koala","","","","","
  <img src=""stimuli/mrfrog.png"" alt=""Mr. Frog"" style=""width:300px;height:300px;"">
  <p>In each trial, you will be shown an image that will be labeled with a word in the language that Mr. Frog speaks. </p>
  <p>Your job will be to select all the items that you think matches what Mr. Frog is asking for. </p>
  <p>Press any key to begin.</p>
"," ","","","","","","","","",""
"","","html-button-response","6","2.0.0","50244","pc8s2khtj20","koala","","","","","<img src=""stimuli/c2_sub1.jpg"" style=""width:200px;height:200px;""> 
              <p>Here is a fep. Can you give Mr. Frog all the other feps?</p>
              <p>Click on all of the feps below. If you change your mind, you can unselect any image.</p>
              <p>Click the Submit button when you are done selecting all the feps.</p>","","1-item","vehicles","one-subordinate","[""stimuli/c2_bas3.jpg"",""stimuli/c2_bas3.jpg"",""stimuli/c2_bas3.jpg"",""stimuli/c2_bas4.jpg"",""stimuli/c2_sub5.jpg"",""stimuli/c2_sub4.jpg""]","[3,3,3,18,13,20]","[8916,11897,13619,14939,15650,16283]","[""select"",""unselect"",""select"",""select"",""select"",""select""]","[""stimuli/c2_bas3.jpg"",""stimuli/c2_bas4.jpg"",""stimuli/c2_sub5.jpg"",""stimuli/c2_sub4.jpg""]","25249"
"","","html-button-response","7","2.0.0","61551","pc8s2khtj20","koala","","","","","<img src=""stimuli/c1_sub1.jpg"" style=""width:200px;height:200px;""> 
              <p>Here is a wug. Can you give Mr. Frog all the other wugs?</p>
              <p>Click on all of the wugs below. If you change your mind, you can unselect any image.</p>
              <p>Click the Submit button when you are done selecting all the wugs.</p>","","1-item","vegetables","one-subordinate","[""stimuli/c1_sub5.jpg"",""stimuli/c1_sub4.jpg""]","[4,5]","[2845,3363]","[""select"",""select""]","[""stimuli/c1_sub5.jpg"",""stimuli/c1_sub4.jpg""]","11304"
"","","html-button-response","8","2.0.0","70798","pc8s2khtj20","koala","","","","","<img src=""stimuli/c3_sub1.jpg"" style=""width:200px;height:200px;""> 
              <p>Here is a tev. Can you give Mr. Frog all the other tevs?</p>
              <p>Click on all of the tevs below. If you change your mind, you can unselect any image.</p>
              <p>Click the Submit button when you are done selecting all the tevs.</p>","","1-item","animals","one-subordinate","[""stimuli/c3_sub5.jpg"",""stimuli/c3_sub4.jpg""]","[16,14]","[5136,5817]","[""select"",""select""]","[""stimuli/c3_sub5.jpg"",""stimuli/c3_sub4.jpg""]","9244"
"","","html-button-response","9","2.0.0","80893","pc8s2khtj20","koala","","","","","<img src=""stimuli/c3_bas1.jpg"" style=""width:200px;height:200px; margin: 5px;""><img src=""stimuli/c3_sub1.jpg"" style=""width:200px;height:200px; margin: 5px;""><img src=""stimuli/c3_bas2.jpg"" style=""width:200px;height:200px; margin: 5px;""><p>Here are some rabs. Can you give Mr. Frog all the other rabs?</p>
                                 <p>Click on all of the rabs below. If you change your mind, you can unselect any image.</p>
                                 <p>Click the Submit button when you are done selecting all the rabs.</p>","","3-item","animals","basic","[""stimuli/c3_bas3.jpg"",""stimuli/c3_bas4.jpg"",""stimuli/c3_sub4.jpg"",""stimuli/c3_sub5.jpg""]","[10,17,18,20]","[5061,5817,7485,8202]","[""select"",""select"",""select"",""select""]","[""stimuli/c3_bas3.jpg"",""stimuli/c3_bas4.jpg"",""stimuli/c3_sub4.jpg"",""stimuli/c3_sub5.jpg""]","10091"
"","","html-button-response","10","2.0.0","95818","pc8s2khtj20","koala","","","","","<img src=""stimuli/c1_sup2.jpg"" style=""width:200px;height:200px; margin: 5px;""><img src=""stimuli/c1_sub1.jpg"" style=""width:200px;height:200px; margin: 5px;""><img src=""stimuli/c1_sup1.jpg"" style=""width:200px;height:200px; margin: 5px;""><p>Here are some tobs. Can you give Mr. Frog all the other tobs?</p>
                                 <p>Click on all of the tobs below. If you change your mind, you can unselect any image.</p>
                                 <p>Click the Submit button when you are done selecting all the tobs.</p>","","3-item","vegetables","superordinate","[""stimuli/c1_sup5.jpg"",""stimuli/c1_sup4.jpg"",""stimuli/c1_sup3.jpg"",""stimuli/c1_bas4.jpg"",""stimuli/c1_sub4.jpg"",""stimuli/c1_sub5.jpg"",""stimuli/c1_sup6.jpg"",""stimuli/c1_sup6.jpg"",""stimuli/c1_bas3.jpg"",""stimuli/c1_sup6.jpg""]","[3,4,17,16,13,6,18,18,19,18]","[5721,6189,7037,7526,9163,9868,10449,10798,11418,11748]","[""select"",""select"",""select"",""select"",""select"",""select"",""select"",""unselect"",""select"",""select""]","[""stimuli/c1_sup5.jpg"",""stimuli/c1_sup4.jpg"",""stimuli/c1_sup3.jpg"",""stimuli/c1_bas4.jpg"",""stimuli/c1_sub4.jpg"",""stimuli/c1_sub5.jpg"",""stimuli/c1_bas3.jpg"",""stimuli/c1_sup6.jpg""]","14921"
"","","html-button-response","11","2.0.0","111312","pc8s2khtj20","koala","","","","","<img src=""stimuli/c2_sub1.jpg"" style=""width:200px;height:200px; margin: 5px;""><img src=""stimuli/c2_sup1.jpg"" style=""width:200px;height:200px; margin: 5px;""><img src=""stimuli/c2_sup2.jpg"" style=""width:200px;height:200px; margin: 5px;""><p>Here are some sibs. Can you give Mr. Frog all the other sibs?</p>
                                 <p>Click on all of the sibs below. If you change your mind, you can unselect any image.</p>
                                 <p>Click the Submit button when you are done selecting all the sibs.</p>","","3-item","vehicles","superordinate","[""stimuli/c2_bas4.jpg"",""stimuli/c2_sub5.jpg"",""stimuli/c2_bas3.jpg"",""stimuli/c2_sup6.jpg"",""stimuli/c2_sub4.jpg""]","[0,1,3,14,23]","[6446,7178,8058,9154,13401]","[""select"",""select"",""select"",""select"",""select""]","[""stimuli/c2_bas4.jpg"",""stimuli/c2_sub5.jpg"",""stimuli/c2_bas3.jpg"",""stimuli/c2_sup6.jpg"",""stimuli/c2_sub4.jpg""]","15491"
"","","html-button-response","12","2.0.0","116466","pc8s2khtj20","koala","","","","","<img src=""stimuli/c3_sub3.jpg"" style=""width:200px;height:200px; margin: 5px;""><img src=""stimuli/c3_sub1.jpg"" style=""width:200px;height:200px; margin: 5px;""><img src=""stimuli/c3_sub2.jpg"" style=""width:200px;height:200px; margin: 5px;""><p>Here are some tevs. Can you give Mr. Frog all the other tevs?</p>
                                 <p>Click on all of the tevs below. If you change your mind, you can unselect any image.</p>
                                 <p>Click the Submit button when you are done selecting all the tevs.</p>","","3-item","animals","subordinate","[""stimuli/c3_sub4.jpg"",""stimuli/c3_sub5.jpg""]","[9,15]","[2604,3474]","[""select"",""select""]","[""stimuli/c3_sub4.jpg"",""stimuli/c3_sub5.jpg""]","5151"
"","","html-button-response","13","2.0.0","124722","pc8s2khtj20","koala","","","","","<img src=""stimuli/c2_bas2.jpg"" style=""width:200px;height:200px; margin: 5px;""><img src=""stimuli/c2_sub1.jpg"" style=""width:200px;height:200px; margin: 5px;""><img src=""stimuli/c2_bas1.jpg"" style=""width:200px;height:200px; margin: 5px;""><p>Here are some meps. Can you give Mr. Frog all the other meps?</p>
                                 <p>Click on all of the meps below. If you change your mind, you can unselect any image.</p>
                                 <p>Click the Submit button when you are done selecting all the meps.</p>","","3-item","vehicles","basic","[""stimuli/c2_sub5.jpg"",""stimuli/c2_bas4.jpg"",""stimuli/c2_sub4.jpg""]","[2,4,20]","[3771,4656,6850]","[""select"",""select"",""select""]","[""stimuli/c2_sub5.jpg"",""stimuli/c2_bas4.jpg"",""stimuli/c2_sub4.jpg""]","8253"
"","","html-button-response","14","2.0.0","133740","pc8s2khtj20","koala","","","","","<img src=""stimuli/c2_sub1.jpg"" style=""width:200px;height:200px; margin: 5px;""><img src=""stimuli/c2_sub2.jpg"" style=""width:200px;height:200px; margin: 5px;""><img src=""stimuli/c2_sub3.jpg"" style=""width:200px;height:200px; margin: 5px;""><p>Here are some feps. Can you give Mr. Frog all the other feps?</p>
                                 <p>Click on all of the feps below. If you change your mind, you can unselect any image.</p>
                                 <p>Click the Submit button when you are done selecting all the feps.</p>","","3-item","vehicles","subordinate","[""stimuli/c2_sub4.jpg"",""stimuli/c2_sub5.jpg""]","[1,3]","[5455,6339]","[""select"",""select""]","[""stimuli/c2_sub4.jpg"",""stimuli/c2_sub5.jpg""]","9014"
"","","html-button-response","15","2.0.0","147707","pc8s2khtj20","koala","","","","","<img src=""stimuli/c3_sup2.jpg"" style=""width:200px;height:200px; margin: 5px;""><img src=""stimuli/c3_sub1.jpg"" style=""width:200px;height:200px; margin: 5px;""><img src=""stimuli/c3_sup1.jpg"" style=""width:200px;height:200px; margin: 5px;""><p>Here are some zoms. Can you give Mr. Frog all the other zoms?</p>
                                 <p>Click on all of the zoms below. If you change your mind, you can unselect any image.</p>
                                 <p>Click the Submit button when you are done selecting all the zoms.</p>","","3-item","animals","superordinate","[""stimuli/c3_sub5.jpg"",""stimuli/c3_bas3.jpg"",""stimuli/c3_sub4.jpg"",""stimuli/c3_sup5.jpg"",""stimuli/c3_sup6.jpg"",""stimuli/c3_bas4.jpg"",""stimuli/c3_sup3.jpg"",""stimuli/c3_sup4.jpg""]","[9,7,6,10,5,16,22,20]","[4975,5723,6387,7180,7961,10088,10821,11563]","[""select"",""select"",""select"",""select"",""select"",""select"",""select"",""select""]","[""stimuli/c3_sub5.jpg"",""stimuli/c3_bas3.jpg"",""stimuli/c3_sub4.jpg"",""stimuli/c3_sup5.jpg"",""stimuli/c3_sup6.jpg"",""stimuli/c3_bas4.jpg"",""stimuli/c3_sup3.jpg"",""stimuli/c3_sup4.jpg""]","13963"
"","","html-button-response","16","2.0.0","153514","pc8s2khtj20","koala","","","","","<img src=""stimuli/c1_bas1.jpg"" style=""width:200px;height:200px; margin: 5px;""><img src=""stimuli/c1_sub1.jpg"" style=""width:200px;height:200px; margin: 5px;""><img src=""stimuli/c1_bas2.jpg"" style=""width:200px;height:200px; margin: 5px;""><p>Here are some rifs. Can you give Mr. Frog all the other rifs?</p>
                                 <p>Click on all of the rifs below. If you change your mind, you can unselect any image.</p>
                                 <p>Click the Submit button when you are done selecting all the rifs.</p>","","3-item","vegetables","basic","[""stimuli/c1_sub5.jpg"",""stimuli/c1_sub4.jpg"",""stimuli/c1_bas3.jpg"",""stimuli/c1_bas4.jpg""]","[5,11,6,18]","[2045,2577,3433,4210]","[""select"",""select"",""select"",""select""]","[""stimuli/c1_sub5.jpg"",""stimuli/c1_sub4.jpg"",""stimuli/c1_bas3.jpg"",""stimuli/c1_bas4.jpg""]","5803"
"","","html-button-response","17","2.0.0","159007","pc8s2khtj20","koala","","","","","<img src=""stimuli/c1_sub3.jpg"" style=""width:200px;height:200px; margin: 5px;""><img src=""stimuli/c1_sub2.jpg"" style=""width:200px;height:200px; margin: 5px;""><img src=""stimuli/c1_sub1.jpg"" style=""width:200px;height:200px; margin: 5px;""><p>Here are some wugs. Can you give Mr. Frog all the other wugs?</p>
                                 <p>Click on all of the wugs below. If you change your mind, you can unselect any image.</p>
                                 <p>Click the Submit button when you are done selecting all the wugs.</p>","","3-item","vegetables","subordinate","[""stimuli/c1_sub5.jpg"",""stimuli/c1_sub4.jpg""]","[2,18]","[2251,4252]","[""select"",""select""]","[""stimuli/c1_sub5.jpg"",""stimuli/c1_sub4.jpg""]","5491"
"","13515","html-keyboard-response","18","2.0.0","172524","pc8s2khtj20","koala","","","","","
      <p>Thank you for playing! This was a big help for Mr. Frog!</p>
      <img src=""stimuli/mrfrog.png"" alt=""Mr. Frog"" style=""width:300px;height:300px;"">
      <p><i>Debrief</i>: In this experiment, we wanted to see how people learn subordinate word meanings (e.g., “dalmatian”) when</p>
      <p>superordinate (e.g., “animal”) and basic-level (e.g., “dog”) meanings can also be reasonable label referents.</p>
      <p>We thought that when presented with three subordinate exemplars (aka the trials with three images), a word will be generalized</p>
      <p>to the subordinate level more often than when presented with one subordinate exemplar (aka the trials with one image).</p>
      <p><b>*Please press any key to save data.*</b></p>
  "," ","","","","","","","","",""
