"success","rt","trial_type","trial_index","plugin_version","time_elapsed","random_id","participant","timeout","failed_images","failed_audio","failed_video","stimulus","response","condition","category","level","selection_array","selection_index","rt_array","selection_type_array","final_choice_array","final_rt"
"true","8195","fullscreen","0","null","9218","pjaqzem446m","gorilla","","","","","","","","","","","","","","",""
"true","","preload","1","2.0.0","9426","pjaqzem446m","gorilla","false","[]","[]","[]","","","","","","","","","","",""
"","1677","html-keyboard-response","2","2.0.0","11105","pjaqzem446m","gorilla","","","","","Welcome to the experiment. Press any key to begin."," ","","","","","","","","",""
"","12003","survey-text","3","2.0.0","23118","pjaqzem446m","gorilla","","","","","","{""participant_id"":""gorilla""}","","","","","","","","",""
"","5819","html-keyboard-response","4","2.0.0","28940","pjaqzem446m","gorilla","","","","","
  <p><b>This is Mr. Frog!</b></p>
  <img src=""stimuli/mrfrog.png"" alt=""Mr. Frog"" style=""width:300px;height:300px;"">
  <p>He speaks a different language and needs help finding the items he wants. Can you help Mr. Frog?</p>
  <p>Press any key to move to the next page.</p>
"," ","","","","","","","","",""
"","9938","html-keyboard-response","5","2.0.0","38880","pjaqzem446m","gorilla","","","","","
  <img src=""stimuli/mrfrog.png"" alt=""Mr. Frog"" style=""width:300px;height:300px;"">
  <p>In each trial, you will be shown an image that will be labeled with a word in the language that Mr. Frog speaks. </p>
  <p>Your job will be to select all the items that you think matches what Mr. Frog is asking for. </p>
  <p>Press any key to begin.</p>
"," ","","","","","","","","",""
"","","html-button-response","6","2.0.0","78269","pjaqzem446m","gorilla","","","","","<img src=""stimuli/c2_sub1.jpg"" style=""width:200px;height:200px;""> 
              <p>Here is a fep. Can you give Mr. Frog all the other feps?</p>
              <p>Click on all of the feps below. If you change your mind, you can unselect any image.</p>
              <p>Click the Submit button when you are done selecting all the feps.</p>","","1-item","vehicles","one-subordinate","[""stimuli/c1_sub5.jpg"",""stimuli/c1_bas3.jpg"",""stimuli/c1_bas4.jpg"",""stimuli/c1_sub4.jpg""]","[0,7,18,22]","[19356,21043,28446,32039]","[""select"",""select"",""select"",""select""]","[""stimuli/c1_sub5.jpg"",""stimuli/c1_bas3.jpg"",""stimuli/c1_bas4.jpg"",""stimuli/c1_sub4.jpg""]","39382"
"","","html-button-response","7","2.0.0","110251","pjaqzem446m","gorilla","","","","","<img src=""stimuli/c1_sub1.jpg"" style=""width:200px;height:200px;""> 
              <p>Here is a sib. Can you give Mr. Frog all the other sibs?</p>
              <p>Click on all of the sibs below. If you change your mind, you can unselect any image.</p>
              <p>Click the Submit button when you are done selecting all the sibs.</p>","","1-item","vegetables","one-subordinate","[""stimuli/c1_sub4.jpg"",""stimuli/c1_bas3.jpg"",""stimuli/c1_sub5.jpg"",""stimuli/c1_bas4.jpg""]","[6,5,16,20]","[10988,19937,20682,21708]","[""select"",""select"",""select"",""select""]","[""stimuli/c1_sub4.jpg"",""stimuli/c1_bas3.jpg"",""stimuli/c1_sub5.jpg"",""stimuli/c1_bas4.jpg""]","31975"
"","","html-button-response","8","2.0.0","125248","pjaqzem446m","gorilla","","","","","<img src=""stimuli/c3_sub1.jpg"" style=""width:200px;height:200px;""> 
              <p>Here is a tev. Can you give Mr. Frog all the other tevs?</p>
              <p>Click on all of the tevs below. If you change your mind, you can unselect any image.</p>
              <p>Click the Submit button when you are done selecting all the tevs.</p>","","1-item","animals","one-subordinate","[""stimuli/c3_sub4.jpg"",""stimuli/c3_sub5.jpg""]","[12,16]","[10847,11763]","[""select"",""select""]","[""stimuli/c3_sub4.jpg"",""stimuli/c3_sub5.jpg""]","14990"
"","","html-button-response","9","2.0.0","162396","pjaqzem446m","gorilla","","","","","<img src=""stimuli/c2_sub2.jpg"" style=""width:200px;height:200px; margin: 5px;""><img src=""stimuli/c2_sub3.jpg"" style=""width:200px;height:200px; margin: 5px;""><img src=""stimuli/c2_sub1.jpg"" style=""width:200px;height:200px; margin: 5px;""><p>Here are some feps. Can you give Mr. Frog all the other feps?</p>
                                 <p>Click on all of the feps below. If you change your mind, you can unselect any image.</p>
                                 <p>Click the Submit button when you are done selecting all the feps.</p>","","3-item","vehicles","subordinate","[""stimuli/c2_sub5.jpg"",""stimuli/c2_sub4.jpg""]","[21,22]","[15136,15835]","[""select"",""select""]","[""stimuli/c2_sub5.jpg"",""stimuli/c2_sub4.jpg""]","37143"
"","","html-button-response","10","2.0.0","171062","pjaqzem446m","gorilla","","","","","<img src=""stimuli/c3_sub3.jpg"" style=""width:200px;height:200px; margin: 5px;""><img src=""stimuli/c3_sub2.jpg"" style=""width:200px;height:200px; margin: 5px;""><img src=""stimuli/c3_sub1.jpg"" style=""width:200px;height:200px; margin: 5px;""><p>Here are some tevs. Can you give Mr. Frog all the other tevs?</p>
                                 <p>Click on all of the tevs below. If you change your mind, you can unselect any image.</p>
                                 <p>Click the Submit button when you are done selecting all the tevs.</p>","","3-item","animals","subordinate","[""stimuli/c3_sub5.jpg"",""stimuli/c3_sub4.jpg""]","[13,17]","[5156,6190]","[""select"",""select""]","[""stimuli/c3_sub5.jpg"",""stimuli/c3_sub4.jpg""]","8660"
"","","html-button-response","11","2.0.0","187146","pjaqzem446m","gorilla","","","","","<img src=""stimuli/c3_sup1.jpg"" style=""width:200px;height:200px; margin: 5px;""><img src=""stimuli/c3_sub1.jpg"" style=""width:200px;height:200px; margin: 5px;""><img src=""stimuli/c3_sup2.jpg"" style=""width:200px;height:200px; margin: 5px;""><p>Here are some tobs. Can you give Mr. Frog all the other tobs?</p>
                                 <p>Click on all of the tobs below. If you change your mind, you can unselect any image.</p>
                                 <p>Click the Submit button when you are done selecting all the tobs.</p>","","3-item","animals","superordinate","[""stimuli/c3_sup6.jpg"",""stimuli/c3_sup4.jpg"",""stimuli/c3_sup5.jpg"",""stimuli/c3_sup3.jpg"",""stimuli/c3_bas4.jpg"",""stimuli/c3_bas3.jpg"",""stimuli/c3_sub5.jpg"",""stimuli/c3_sub4.jpg""]","[2,8,10,17,19,20,21,22]","[5172,6355,7507,9108,10090,10715,11376,12188]","[""select"",""select"",""select"",""select"",""select"",""select"",""select"",""select""]","[""stimuli/c3_sup6.jpg"",""stimuli/c3_sup4.jpg"",""stimuli/c3_sup5.jpg"",""stimuli/c3_sup3.jpg"",""stimuli/c3_bas4.jpg"",""stimuli/c3_bas3.jpg"",""stimuli/c3_sub5.jpg"",""stimuli/c3_sub4.jpg""]","16078"
"","","html-button-response","12","2.0.0","199233","pjaqzem446m","gorilla","","","","","<img src=""stimuli/c1_sub1.jpg"" style=""width:200px;height:200px; margin: 5px;""><img src=""stimuli/c1_sup1.jpg"" style=""width:200px;height:200px; margin: 5px;""><img src=""stimuli/c1_sup2.jpg"" style=""width:200px;height:200px; margin: 5px;""><p>Here are some zoms. Can you give Mr. Frog all the other zoms?</p>
                                 <p>Click on all of the zoms below. If you change your mind, you can unselect any image.</p>
                                 <p>Click the Submit button when you are done selecting all the zoms.</p>","","3-item","vegetables","superordinate","[""stimuli/c1_sup3.jpg"",""stimuli/c1_sup6.jpg"",""stimuli/c1_sub4.jpg"",""stimuli/c1_sub5.jpg"",""stimuli/c1_sup5.jpg"",""stimuli/c1_bas4.jpg"",""stimuli/c1_sup4.jpg"",""stimuli/c1_bas3.jpg""]","[5,6,9,10,17,15,14,18]","[4756,5798,6817,7477,8162,8764,9374,10438]","[""select"",""select"",""select"",""select"",""select"",""select"",""select"",""select""]","[""stimuli/c1_sup3.jpg"",""stimuli/c1_sup6.jpg"",""stimuli/c1_sub4.jpg"",""stimuli/c1_sub5.jpg"",""stimuli/c1_sup5.jpg"",""stimuli/c1_bas4.jpg"",""stimuli/c1_sup4.jpg"",""stimuli/c1_bas3.jpg""]","12082"
"","","html-button-response","13","2.0.0","209115","pjaqzem446m","gorilla","","","","","<img src=""stimuli/c3_sub1.jpg"" style=""width:200px;height:200px; margin: 5px;""><img src=""stimuli/c3_bas2.jpg"" style=""width:200px;height:200px; margin: 5px;""><img src=""stimuli/c3_bas1.jpg"" style=""width:200px;height:200px; margin: 5px;""><p>Here are some rifs. Can you give Mr. Frog all the other rifs?</p>
                                 <p>Click on all of the rifs below. If you change your mind, you can unselect any image.</p>
                                 <p>Click the Submit button when you are done selecting all the rifs.</p>","","3-item","animals","basic","[""stimuli/c3_bas4.jpg"",""stimuli/c3_bas3.jpg"",""stimuli/c3_sub5.jpg"",""stimuli/c3_sub4.jpg""]","[7,8,9,17]","[5652,6165,6888,8129]","[""select"",""select"",""select"",""select""]","[""stimuli/c3_bas4.jpg"",""stimuli/c3_bas3.jpg"",""stimuli/c3_sub5.jpg"",""stimuli/c3_sub4.jpg""]","9879"
"","","html-button-response","14","2.0.0","240608","pjaqzem446m","gorilla","","","","","<img src=""stimuli/c2_sub1.jpg"" style=""width:200px;height:200px; margin: 5px;""><img src=""stimuli/c2_sup1.jpg"" style=""width:200px;height:200px; margin: 5px;""><img src=""stimuli/c2_sup2.jpg"" style=""width:200px;height:200px; margin: 5px;""><p>Here are some wugs. Can you give Mr. Frog all the other wugs?</p>
                                 <p>Click on all of the wugs below. If you change your mind, you can unselect any image.</p>
                                 <p>Click the Submit button when you are done selecting all the wugs.</p>","","3-item","vehicles","superordinate","[""stimuli/c2_sub4.jpg"",""stimuli/c2_sub5.jpg"",""stimuli/c2_sup6.jpg"",""stimuli/c2_bas3.jpg"",""stimuli/c2_bas4.jpg""]","[0,1,2,12,14]","[7783,8677,9762,22447,23205]","[""select"",""select"",""select"",""select"",""select""]","[""stimuli/c2_sub4.jpg"",""stimuli/c2_sub5.jpg"",""stimuli/c2_sup6.jpg"",""stimuli/c2_bas3.jpg"",""stimuli/c2_bas4.jpg""]","31487"
"","","html-button-response","15","2.0.0","247972","pjaqzem446m","gorilla","","","","","<img src=""stimuli/c1_sub1.jpg"" style=""width:200px;height:200px; margin: 5px;""><img src=""stimuli/c1_bas2.jpg"" style=""width:200px;height:200px; margin: 5px;""><img src=""stimuli/c1_bas1.jpg"" style=""width:200px;height:200px; margin: 5px;""><p>Here are some meps. Can you give Mr. Frog all the other meps?</p>
                                 <p>Click on all of the meps below. If you change your mind, you can unselect any image.</p>
                                 <p>Click the Submit button when you are done selecting all the meps.</p>","","3-item","vegetables","basic","[""stimuli/c1_bas4.jpg"",""stimuli/c1_sub5.jpg"",""stimuli/c1_bas3.jpg"",""stimuli/c1_sub4.jpg""]","[0,4,14,23]","[2142,3139,5356,6280]","[""select"",""select"",""select"",""select""]","[""stimuli/c1_bas4.jpg"",""stimuli/c1_sub5.jpg"",""stimuli/c1_bas3.jpg"",""stimuli/c1_sub4.jpg""]","7358"
"","","html-button-response","16","2.0.0","257420","pjaqzem446m","gorilla","","","","","<img src=""stimuli/c1_sub2.jpg"" style=""width:200px;height:200px; margin: 5px;""><img src=""stimuli/c1_sub3.jpg"" style=""width:200px;height:200px; margin: 5px;""><img src=""stimuli/c1_sub1.jpg"" style=""width:200px;height:200px; margin: 5px;""><p>Here are some sibs. Can you give Mr. Frog all the other sibs?</p>
                                 <p>Click on all of the sibs below. If you change your mind, you can unselect any image.</p>
                                 <p>Click the Submit button when you are done selecting all the sibs.</p>","","3-item","vegetables","subordinate","[""stimuli/c1_sub5.jpg"",""stimuli/c1_sub4.jpg"",""stimuli/c1_sup4.jpg""]","[13,10,16]","[2346,3676,7485]","[""select"",""select"",""select""]","[""stimuli/c1_sub5.jpg"",""stimuli/c1_sub4.jpg"",""stimuli/c1_sup4.jpg""]","9443"
"","","html-button-response","17","2.0.0","269882","pjaqzem446m","gorilla","","","","","<img src=""stimuli/c2_sub1.jpg"" style=""width:200px;height:200px; margin: 5px;""><img src=""stimuli/c2_bas2.jpg"" style=""width:200px;height:200px; margin: 5px;""><img src=""stimuli/c2_bas1.jpg"" style=""width:200px;height:200px; margin: 5px;""><p>Here are some rabs. Can you give Mr. Frog all the other rabs?</p>
                                 <p>Click on all of the rabs below. If you change your mind, you can unselect any image.</p>
                                 <p>Click the Submit button when you are done selecting all the rabs.</p>","","3-item","vehicles","basic","[""stimuli/c2_sub5.jpg"",""stimuli/c2_sub4.jpg"",""stimuli/c2_bas4.jpg"",""stimuli/c2_bas3.jpg""]","[1,15,20,10]","[2382,3333,5781,11332]","[""select"",""select"",""select"",""select""]","[""stimuli/c2_sub5.jpg"",""stimuli/c2_sub4.jpg"",""stimuli/c2_bas4.jpg"",""stimuli/c2_bas3.jpg""]","12455"
"","9400","html-keyboard-response","18","2.0.0","279286","pjaqzem446m","gorilla","","","","","
      <p>Thank you for playing! This was a big help for Mr. Frog!</p>
      <img src=""stimuli/mrfrog.png"" alt=""Mr. Frog"" style=""width:300px;height:300px;"">
      <p><i>Debrief</i>: In this experiment, we wanted to see how people learn subordinate word meanings (e.g., “dalmatian”) when</p>
      <p>superordinate (e.g., “animal”) and basic-level (e.g., “dog”) meanings can also be reasonable label referents.</p>
      <p>We thought that when presented with three subordinate exemplars (aka the trials with three images), a word will be generalized</p>
      <p>to the subordinate level more often than when presented with one subordinate exemplar (aka the trials with one image).</p>
      <p><b>*Please press any key to save data.*</b></p>
  "," ","","","","","","","","",""
