"success","rt","trial_type","trial_index","plugin_version","time_elapsed","random_id","participant","timeout","failed_images","failed_audio","failed_video","stimulus","response","condition","category","level","selection_array","selection_index","rt_array","selection_type_array","final_choice_array","final_rt"
"true","4949","fullscreen","0","null","5953","po33dy36rka","falcon","","","","","","","","","","","","","","",""
"true","","preload","1","2.0.0","6184","po33dy36rka","falcon","false","[]","[]","[]","","","","","","","","","","",""
"","1092","html-keyboard-response","2","2.0.0","7277","po33dy36rka","falcon","","","","","Welcome to the experiment. Press any key to begin.","`","","","","","","","","",""
"","3587","survey-text","3","2.0.0","10867","po33dy36rka","falcon","","","","","","{""participant_id"":""falcon""}","","","","","","","","",""
"","6437","html-keyboard-response","4","2.0.0","17306","po33dy36rka","falcon","","","","","
  <p><b>This is Mr. Frog!</b></p>
  <img src=""stimuli/mrfrog.png"" alt=""Mr. Frog"" style=""width:300px;height:300px;"">
  <p>He speaks a different language and needs help finding the items he wants. Can you help Mr. Frog?</p>
  <p>Press any key to move to the next page.</p>
"," ","","","","","","","","",""
"","14584","html-keyboard-response","5","2.0.0","31892","po33dy36rka","falcon","","","","","
  <img src=""stimuli/mrfrog.png"" alt=""Mr. Frog"" style=""width:300px;height:300px;"">
  <p>In each trial, you will be shown an image that will be labeled with a word in the language that Mr. Frog speaks. </p>
  <p>Your job will be to select all the items that you think matches what Mr. Frog is asking for. </p>
  <p>Press any key to begin.</p>
"," ","","","","","","","","",""
"","","html-button-response","6","2.0.0","49468","po33dy36rka","falcon","","","","","<img src=""stimuli/c3_sub1.jpg"" style=""width:200px;height:200px;""> 
              <p>Here is a fep. Can you give Mr. Frog all the other feps?</p>
              <p>Click on all of the feps below. If you change your mind, you can unselect any image.</p>
              <p>Click the Submit button when you are done selecting all the feps.</p>","","1-item","animals","one-subordinate","[""stimuli/c3_bas3.jpg"",""stimuli/c3_sub4.jpg"",""stimuli/c3_bas4.jpg"",""stimuli/c3_sub5.jpg""]","[4,11,8,13]","[10954,11587,12787,14303]","[""select"",""select"",""select"",""select""]","[""stimuli/c3_bas3.jpg"",""stimuli/c3_sub4.jpg"",""stimuli/c3_bas4.jpg"",""stimuli/c3_sub5.jpg""]","17571"
"","","html-button-response","7","2.0.0","63618","po33dy36rka","falcon","","","","","<img src=""stimuli/c2_sub1.jpg"" style=""width:200px;height:200px;""> 
              <p>Here is a tev. Can you give Mr. Frog all the other tevs?</p>
              <p>Click on all of the tevs below. If you change your mind, you can unselect any image.</p>
              <p>Click the Submit button when you are done selecting all the tevs.</p>","","1-item","vehicles","one-subordinate","[""stimuli/c2_bas4.jpg"",""stimuli/c2_sub4.jpg"",""stimuli/c2_bas4.jpg"",""stimuli/c2_bas3.jpg"",""stimuli/c2_bas4.jpg""]","[1,21,1,22,1]","[4311,6810,8060,12161,13161]","[""select"",""select"",""unselect"",""select"",""select""]","[""stimuli/c2_sub4.jpg"",""stimuli/c2_bas3.jpg"",""stimuli/c2_bas4.jpg""]","14145"
"","","html-button-response","8","2.0.0","72484","po33dy36rka","falcon","","","","","<img src=""stimuli/c1_sub1.jpg"" style=""width:200px;height:200px;""> 
              <p>Here is a rif. Can you give Mr. Frog all the other rifs?</p>
              <p>Click on all of the rifs below. If you change your mind, you can unselect any image.</p>
              <p>Click the Submit button when you are done selecting all the rifs.</p>","","1-item","vegetables","one-subordinate","[""stimuli/c1_sub5.jpg"",""stimuli/c1_sub4.jpg"",""stimuli/c1_bas3.jpg"",""stimuli/c1_bas4.jpg""]","[9,15,12,22]","[3262,4062,4746,6129]","[""select"",""select"",""select"",""select""]","[""stimuli/c1_sub5.jpg"",""stimuli/c1_sub4.jpg"",""stimuli/c1_bas3.jpg"",""stimuli/c1_bas4.jpg""]","8863"
"","","html-button-response","9","2.0.0","92517","po33dy36rka","falcon","","","","","<img src=""stimuli/c2_sup1.jpg"" style=""width:200px;height:200px; margin: 5px;""><img src=""stimuli/c2_sup2.jpg"" style=""width:200px;height:200px; margin: 5px;""><img src=""stimuli/c2_sub1.jpg"" style=""width:200px;height:200px; margin: 5px;""><p>Here are some wugs. Can you give Mr. Frog all the other wugs?</p>
                                 <p>Click on all of the wugs below. If you change your mind, you can unselect any image.</p>
                                 <p>Click the Submit button when you are done selecting all the wugs.</p>","","3-item","vehicles","superordinate","[""stimuli/c2_bas3.jpg"",""stimuli/c2_bas4.jpg"",""stimuli/c2_sup6.jpg"",""stimuli/c2_sup3.jpg"",""stimuli/c2_sup3.jpg"",""stimuli/c2_sub4.jpg""]","[0,15,11,5,5,20]","[12245,13111,13828,14195,15412,17694]","[""select"",""select"",""select"",""select"",""unselect"",""select""]","[""stimuli/c2_bas3.jpg"",""stimuli/c2_bas4.jpg"",""stimuli/c2_sup6.jpg"",""stimuli/c2_sub4.jpg""]","20028"
"","","html-button-response","10","2.0.0","107101","po33dy36rka","falcon","","","","","<img src=""stimuli/c3_sup1.jpg"" style=""width:200px;height:200px; margin: 5px;""><img src=""stimuli/c3_sub1.jpg"" style=""width:200px;height:200px; margin: 5px;""><img src=""stimuli/c3_sup2.jpg"" style=""width:200px;height:200px; margin: 5px;""><p>Here are some sibs. Can you give Mr. Frog all the other sibs?</p>
                                 <p>Click on all of the sibs below. If you change your mind, you can unselect any image.</p>
                                 <p>Click the Submit button when you are done selecting all the sibs.</p>","","3-item","animals","superordinate","[""stimuli/c3_sub5.jpg"",""stimuli/c3_bas3.jpg"",""stimuli/c3_sub4.jpg"",""stimuli/c3_bas4.jpg""]","[13,9,20,12]","[5846,6329,9129,9812]","[""select"",""select"",""select"",""select""]","[""stimuli/c3_sub5.jpg"",""stimuli/c3_bas3.jpg"",""stimuli/c3_sub4.jpg"",""stimuli/c3_bas4.jpg""]","14580"
"","","html-button-response","11","2.0.0","112034","po33dy36rka","falcon","","","","","<img src=""stimuli/c1_bas1.jpg"" style=""width:200px;height:200px; margin: 5px;""><img src=""stimuli/c1_sub1.jpg"" style=""width:200px;height:200px; margin: 5px;""><img src=""stimuli/c1_bas2.jpg"" style=""width:200px;height:200px; margin: 5px;""><p>Here are some meps. Can you give Mr. Frog all the other meps?</p>
                                 <p>Click on all of the meps below. If you change your mind, you can unselect any image.</p>
                                 <p>Click the Submit button when you are done selecting all the meps.</p>","","3-item","vegetables","basic","[""stimuli/c1_bas4.jpg"",""stimuli/c1_sub4.jpg"",""stimuli/c1_bas3.jpg"",""stimuli/c1_sub5.jpg""]","[9,14,15,17]","[1712,2795,3112,3644]","[""select"",""select"",""select"",""select""]","[""stimuli/c1_bas4.jpg"",""stimuli/c1_sub4.jpg"",""stimuli/c1_bas3.jpg"",""stimuli/c1_sub5.jpg""]","4929"
"","","html-button-response","12","2.0.0","125233","po33dy36rka","falcon","","","","","<img src=""stimuli/c1_sub1.jpg"" style=""width:200px;height:200px; margin: 5px;""><img src=""stimuli/c1_sup1.jpg"" style=""width:200px;height:200px; margin: 5px;""><img src=""stimuli/c1_sup2.jpg"" style=""width:200px;height:200px; margin: 5px;""><p>Here are some rabs. Can you give Mr. Frog all the other rabs?</p>
                                 <p>Click on all of the rabs below. If you change your mind, you can unselect any image.</p>
                                 <p>Click the Submit button when you are done selecting all the rabs.</p>","","3-item","vegetables","superordinate","[""stimuli/c1_sub4.jpg"",""stimuli/c1_sub4.jpg"",""stimuli/c1_bas3.jpg"",""stimuli/c1_bas4.jpg"",""stimuli/c1_sub4.jpg"",""stimuli/c1_sub5.jpg""]","[3,3,22,14,3,4]","[1245,4395,9329,9978,10695,11012]","[""select"",""unselect"",""select"",""select"",""select"",""select""]","[""stimuli/c1_bas3.jpg"",""stimuli/c1_bas4.jpg"",""stimuli/c1_sub4.jpg"",""stimuli/c1_sub5.jpg""]","13195"
"","","html-button-response","13","2.0.0","132000","po33dy36rka","falcon","","","","","<img src=""stimuli/c3_sub3.jpg"" style=""width:200px;height:200px; margin: 5px;""><img src=""stimuli/c3_sub2.jpg"" style=""width:200px;height:200px; margin: 5px;""><img src=""stimuli/c3_sub1.jpg"" style=""width:200px;height:200px; margin: 5px;""><p>Here are some feps. Can you give Mr. Frog all the other feps?</p>
                                 <p>Click on all of the feps below. If you change your mind, you can unselect any image.</p>
                                 <p>Click the Submit button when you are done selecting all the feps.</p>","","3-item","animals","subordinate","[""stimuli/c3_bas4.jpg"",""stimuli/c3_sub5.jpg"",""stimuli/c3_bas3.jpg"",""stimuli/c3_sub4.jpg""]","[2,11,20,15]","[2296,3395,4379,4729]","[""select"",""select"",""select"",""select""]","[""stimuli/c3_bas4.jpg"",""stimuli/c3_sub5.jpg"",""stimuli/c3_bas3.jpg"",""stimuli/c3_sub4.jpg""]","6763"
"","","html-button-response","14","2.0.0","136434","po33dy36rka","falcon","","","","","<img src=""stimuli/c2_bas1.jpg"" style=""width:200px;height:200px; margin: 5px;""><img src=""stimuli/c2_bas2.jpg"" style=""width:200px;height:200px; margin: 5px;""><img src=""stimuli/c2_sub1.jpg"" style=""width:200px;height:200px; margin: 5px;""><p>Here are some zoms. Can you give Mr. Frog all the other zoms?</p>
                                 <p>Click on all of the zoms below. If you change your mind, you can unselect any image.</p>
                                 <p>Click the Submit button when you are done selecting all the zoms.</p>","","3-item","vehicles","basic","[""stimuli/c2_bas4.jpg"",""stimuli/c2_bas3.jpg"",""stimuli/c2_sub5.jpg""]","[0,6,11]","[1696,2012,3146]","[""select"",""select"",""select""]","[""stimuli/c2_bas4.jpg"",""stimuli/c2_bas3.jpg"",""stimuli/c2_sub5.jpg""]","4430"
"","","html-button-response","15","2.0.0","140033","po33dy36rka","falcon","","","","","<img src=""stimuli/c2_sub1.jpg"" style=""width:200px;height:200px; margin: 5px;""><img src=""stimuli/c2_sub2.jpg"" style=""width:200px;height:200px; margin: 5px;""><img src=""stimuli/c2_sub3.jpg"" style=""width:200px;height:200px; margin: 5px;""><p>Here are some tevs. Can you give Mr. Frog all the other tevs?</p>
                                 <p>Click on all of the tevs below. If you change your mind, you can unselect any image.</p>
                                 <p>Click the Submit button when you are done selecting all the tevs.</p>","","3-item","vehicles","subordinate","[""stimuli/c2_sub4.jpg"",""stimuli/c2_sub5.jpg""]","[8,22]","[1411,2728]","[""select"",""select""]","[""stimuli/c2_sub4.jpg"",""stimuli/c2_sub5.jpg""]","3595"
"","","html-button-response","16","2.0.0","146900","po33dy36rka","falcon","","","","","<img src=""stimuli/c3_bas1.jpg"" style=""width:200px;height:200px; margin: 5px;""><img src=""stimuli/c3_sub1.jpg"" style=""width:200px;height:200px; margin: 5px;""><img src=""stimuli/c3_bas2.jpg"" style=""width:200px;height:200px; margin: 5px;""><p>Here are some tobs. Can you give Mr. Frog all the other tobs?</p>
                                 <p>Click on all of the tobs below. If you change your mind, you can unselect any image.</p>
                                 <p>Click the Submit button when you are done selecting all the tobs.</p>","","3-item","animals","basic","[""stimuli/c3_sub4.jpg"",""stimuli/c3_sub5.jpg"",""stimuli/c3_bas3.jpg"",""stimuli/c3_bas4.jpg""]","[6,1,17,22]","[2662,2979,4029,5479]","[""select"",""select"",""select"",""select""]","[""stimuli/c3_sub4.jpg"",""stimuli/c3_sub5.jpg"",""stimuli/c3_bas3.jpg"",""stimuli/c3_bas4.jpg""]","6863"
"","","html-button-response","17","2.0.0","150451","po33dy36rka","falcon","","","","","<img src=""stimuli/c1_sub3.jpg"" style=""width:200px;height:200px; margin: 5px;""><img src=""stimuli/c1_sub2.jpg"" style=""width:200px;height:200px; margin: 5px;""><img src=""stimuli/c1_sub1.jpg"" style=""width:200px;height:200px; margin: 5px;""><p>Here are some rifs. Can you give Mr. Frog all the other rifs?</p>
                                 <p>Click on all of the rifs below. If you change your mind, you can unselect any image.</p>
                                 <p>Click the Submit button when you are done selecting all the rifs.</p>","","3-item","vegetables","subordinate","[""stimuli/c1_sub4.jpg"",""stimuli/c1_sub5.jpg""]","[3,9]","[1295,1661]","[""select"",""select""]","[""stimuli/c1_sub4.jpg"",""stimuli/c1_sub5.jpg""]","3546"
"","9394","html-keyboard-response","18","2.0.0","159847","po33dy36rka","falcon","","","","","
      <p>Thank you for playing! This was a big help for Mr. Frog!</p>
      <img src=""stimuli/mrfrog.png"" alt=""Mr. Frog"" style=""width:300px;height:300px;"">
      <p><i>Debrief</i>: In this experiment, we wanted to see how people learn subordinate word meanings (e.g., “dalmatian”) when</p>
      <p>superordinate (e.g., “animal”) and basic-level (e.g., “dog”) meanings can also be reasonable label referents.</p>
      <p>We thought that when presented with three subordinate exemplars (aka the trials with three images), a word will be generalized</p>
      <p>to the subordinate level more often than when presented with one subordinate exemplar (aka the trials with one image).</p>
      <p><b>*Please press any key to save data.*</b></p>
  "," ","","","","","","","","",""
