"success","rt","trial_type","trial_index","plugin_version","time_elapsed","random_id","participant","timeout","failed_images","failed_audio","failed_video","stimulus","response","condition","category","level","selection_array","selection_index","rt_array","selection_type_array","final_choice_array","final_rt"
"true","1231","fullscreen","0","null","2243","prhh5yc92ve","A17689315","","","","","","","","","","","","","","",""
"true","","preload","1","2.0.0","2749","prhh5yc92ve","A17689315","false","[]","[]","[]","","","","","","","","","","",""
"","5601","html-keyboard-response","2","2.0.0","8351","prhh5yc92ve","A17689315","","","","","Welcome to the experiment. Press any key to begin.","y","","","","","","","","",""
"","5759","survey-text","3","2.0.0","14113","prhh5yc92ve","A17689315","","","","","","{""participant_id"":""A17689315""}","","","","","","","","",""
"","3278","html-keyboard-response","4","2.0.0","17392","prhh5yc92ve","A17689315","","","","","
  <p><b>This is Mr. Frog!</b></p>
  <img src=""stimuli/mrfrog.png"" alt=""Mr. Frog"" style=""width:300px;height:300px;"">
  <p>He speaks a different language and needs help finding the items he wants. Can you help Mr. Frog?</p>
  <p>Press any key to move to the next page.</p>
","l","","","","","","","","",""
"","3787","html-keyboard-response","5","2.0.0","21179","prhh5yc92ve","A17689315","","","","","
  <img src=""stimuli/mrfrog.png"" alt=""Mr. Frog"" style=""width:300px;height:300px;"">
  <p>In each trial, you will be shown an image that will be labeled with a word in the language that Mr. Frog speaks. </p>
  <p>Your job will be to select all the items that you think matches what Mr. Frog is asking for. </p>
  <p>Press any key to begin.</p>
",";","","","","","","","","",""
"","","html-button-response","6","2.0.0","44683","prhh5yc92ve","A17689315","","","","","<img src=""stimuli/c3_sub1.jpg"" style=""width:200px;height:200px;""> 
              <p>Here is a tob. Can you give Mr. Frog all the other tobs?</p>
              <p>Click on all of the tobs below. If you change your mind, you can unselect any image.</p>
              <p>Click the Submit button when you are done selecting all the tobs.</p>","","1-item","animals","one-subordinate","[""stimuli/c3_sub4.jpg"",""stimuli/c3_sub4.jpg"",""stimuli/c3_sub4.jpg"",""stimuli/c3_sub4.jpg"",""stimuli/c3_bas4.jpg"",""stimuli/c3_bas3.jpg"",""stimuli/c3_sub5.jpg"",""stimuli/c3_sub4.jpg""]","[1,1,1,1,5,17,22,1]","[6951,8582,11963,12859,15011,16041,16721,18416]","[""select"",""unselect"",""select"",""unselect"",""select"",""select"",""select"",""select""]","[""stimuli/c3_bas4.jpg"",""stimuli/c3_bas3.jpg"",""stimuli/c3_sub5.jpg"",""stimuli/c3_sub4.jpg""]","23502"
"","","html-button-response","7","2.0.0","53072","prhh5yc92ve","A17689315","","","","","<img src=""stimuli/c2_sub1.jpg"" style=""width:200px;height:200px;""> 
              <p>Here is a fep. Can you give Mr. Frog all the other feps?</p>
              <p>Click on all of the feps below. If you change your mind, you can unselect any image.</p>
              <p>Click the Submit button when you are done selecting all the feps.</p>","","1-item","vehicles","one-subordinate","[""stimuli/c2_bas3.jpg"",""stimuli/c2_sub5.jpg"",""stimuli/c2_bas4.jpg"",""stimuli/c2_sub4.jpg""]","[8,7,3,22]","[3980,4613,5381,6732]","[""select"",""select"",""select"",""select""]","[""stimuli/c2_bas3.jpg"",""stimuli/c2_sub5.jpg"",""stimuli/c2_bas4.jpg"",""stimuli/c2_sub4.jpg""]","8387"
"","","html-button-response","8","2.0.0","58318","prhh5yc92ve","A17689315","","","","","<img src=""stimuli/c1_sub1.jpg"" style=""width:200px;height:200px;""> 
              <p>Here is a zom. Can you give Mr. Frog all the other zoms?</p>
              <p>Click on all of the zoms below. If you change your mind, you can unselect any image.</p>
              <p>Click the Submit button when you are done selecting all the zoms.</p>","","1-item","vegetables","one-subordinate","[""stimuli/c1_bas3.jpg"",""stimuli/c1_sub4.jpg"",""stimuli/c1_bas4.jpg"",""stimuli/c1_sub5.jpg""]","[2,10,17,19]","[2029,2621,3092,4051]","[""select"",""select"",""select"",""select""]","[""stimuli/c1_bas3.jpg"",""stimuli/c1_sub4.jpg"",""stimuli/c1_bas4.jpg"",""stimuli/c1_sub5.jpg""]","5244"
"","","html-button-response","9","2.0.0","63410","prhh5yc92ve","A17689315","","","","","<img src=""stimuli/c3_sub2.jpg"" style=""width:200px;height:200px; margin: 5px;""><img src=""stimuli/c3_sub3.jpg"" style=""width:200px;height:200px; margin: 5px;""><img src=""stimuli/c3_sub1.jpg"" style=""width:200px;height:200px; margin: 5px;""><p>Here are some tobs. Can you give Mr. Frog all the other tobs?</p>
                                 <p>Click on all of the tobs below. If you change your mind, you can unselect any image.</p>
                                 <p>Click the Submit button when you are done selecting all the tobs.</p>","","3-item","animals","subordinate","[""stimuli/c3_sub4.jpg"",""stimuli/c3_sub5.jpg"",""stimuli/c3_bas4.jpg""]","[4,6,20]","[2260,3212,3971]","[""select"",""select"",""select""]","[""stimuli/c3_sub4.jpg"",""stimuli/c3_sub5.jpg"",""stimuli/c3_bas4.jpg""]","5090"
"","","html-button-response","10","2.0.0","68464","prhh5yc92ve","A17689315","","","","","<img src=""stimuli/c1_sub1.jpg"" style=""width:200px;height:200px; margin: 5px;""><img src=""stimuli/c1_sub3.jpg"" style=""width:200px;height:200px; margin: 5px;""><img src=""stimuli/c1_sub2.jpg"" style=""width:200px;height:200px; margin: 5px;""><p>Here are some zoms. Can you give Mr. Frog all the other zoms?</p>
                                 <p>Click on all of the zoms below. If you change your mind, you can unselect any image.</p>
                                 <p>Click the Submit button when you are done selecting all the zoms.</p>","","3-item","vegetables","subordinate","[""stimuli/c1_sub5.jpg"",""stimuli/c1_sub4.jpg"",""stimuli/c1_bas3.jpg"",""stimuli/c1_bas4.jpg""]","[2,16,7,19]","[1422,1983,2838,3382]","[""select"",""select"",""select"",""select""]","[""stimuli/c1_sub5.jpg"",""stimuli/c1_sub4.jpg"",""stimuli/c1_bas3.jpg"",""stimuli/c1_bas4.jpg""]","5053"
"","","html-button-response","11","2.0.0","72439","prhh5yc92ve","A17689315","","","","","<img src=""stimuli/c2_sub3.jpg"" style=""width:200px;height:200px; margin: 5px;""><img src=""stimuli/c2_sub1.jpg"" style=""width:200px;height:200px; margin: 5px;""><img src=""stimuli/c2_sub2.jpg"" style=""width:200px;height:200px; margin: 5px;""><p>Here are some feps. Can you give Mr. Frog all the other feps?</p>
                                 <p>Click on all of the feps below. If you change your mind, you can unselect any image.</p>
                                 <p>Click the Submit button when you are done selecting all the feps.</p>","","3-item","vehicles","subordinate","[""stimuli/c2_bas4.jpg"",""stimuli/c2_sub4.jpg"",""stimuli/c2_sub5.jpg""]","[11,7,19]","[1718,2397,3381]","[""select"",""select"",""select""]","[""stimuli/c2_bas4.jpg"",""stimuli/c2_sub4.jpg"",""stimuli/c2_sub5.jpg""]","3972"
"","","html-button-response","12","2.0.0","80371","prhh5yc92ve","A17689315","","","","","<img src=""stimuli/c1_sub1.jpg"" style=""width:200px;height:200px; margin: 5px;""><img src=""stimuli/c1_sup2.jpg"" style=""width:200px;height:200px; margin: 5px;""><img src=""stimuli/c1_sup1.jpg"" style=""width:200px;height:200px; margin: 5px;""><p>Here are some sibs. Can you give Mr. Frog all the other sibs?</p>
                                 <p>Click on all of the sibs below. If you change your mind, you can unselect any image.</p>
                                 <p>Click the Submit button when you are done selecting all the sibs.</p>","","3-item","vegetables","superordinate","[""stimuli/c1_bas4.jpg"",""stimuli/c1_sub5.jpg"",""stimuli/c1_sup6.jpg"",""stimuli/c1_sup5.jpg"",""stimuli/c1_sup3.jpg"",""stimuli/c1_bas3.jpg"",""stimuli/c1_sub4.jpg"",""stimuli/c1_sup4.jpg""]","[1,2,7,13,14,16,17,11]","[2452,2796,3213,3700,4236,5060,5427,5788]","[""select"",""select"",""select"",""select"",""select"",""select"",""select"",""select""]","[""stimuli/c1_bas4.jpg"",""stimuli/c1_sub5.jpg"",""stimuli/c1_sup6.jpg"",""stimuli/c1_sup5.jpg"",""stimuli/c1_sup3.jpg"",""stimuli/c1_bas3.jpg"",""stimuli/c1_sub4.jpg"",""stimuli/c1_sup4.jpg""]","7930"
"","","html-button-response","13","2.0.0","86232","prhh5yc92ve","A17689315","","","","","<img src=""stimuli/c1_bas2.jpg"" style=""width:200px;height:200px; margin: 5px;""><img src=""stimuli/c1_sub1.jpg"" style=""width:200px;height:200px; margin: 5px;""><img src=""stimuli/c1_bas1.jpg"" style=""width:200px;height:200px; margin: 5px;""><p>Here are some wugs. Can you give Mr. Frog all the other wugs?</p>
                                 <p>Click on all of the wugs below. If you change your mind, you can unselect any image.</p>
                                 <p>Click the Submit button when you are done selecting all the wugs.</p>","","3-item","vegetables","basic","[""stimuli/c1_sub5.jpg"",""stimuli/c1_bas4.jpg"",""stimuli/c1_bas3.jpg"",""stimuli/c1_sub4.jpg""]","[10,4,18,14]","[2118,2558,3703,5084]","[""select"",""select"",""select"",""select""]","[""stimuli/c1_sub5.jpg"",""stimuli/c1_bas4.jpg"",""stimuli/c1_bas3.jpg"",""stimuli/c1_sub4.jpg""]","5860"
"","","html-button-response","14","2.0.0","91119","prhh5yc92ve","A17689315","","","","","<img src=""stimuli/c2_sub1.jpg"" style=""width:200px;height:200px; margin: 5px;""><img src=""stimuli/c2_bas2.jpg"" style=""width:200px;height:200px; margin: 5px;""><img src=""stimuli/c2_bas1.jpg"" style=""width:200px;height:200px; margin: 5px;""><p>Here are some meps. Can you give Mr. Frog all the other meps?</p>
                                 <p>Click on all of the meps below. If you change your mind, you can unselect any image.</p>
                                 <p>Click the Submit button when you are done selecting all the meps.</p>","","3-item","vehicles","basic","[""stimuli/c2_bas3.jpg"",""stimuli/c2_sub4.jpg"",""stimuli/c2_bas4.jpg"",""stimuli/c2_sub5.jpg""]","[1,18,5,4]","[1806,2966,3620,3924]","[""select"",""select"",""select"",""select""]","[""stimuli/c2_bas3.jpg"",""stimuli/c2_sub4.jpg"",""stimuli/c2_bas4.jpg"",""stimuli/c2_sub5.jpg""]","4884"
"","","html-button-response","15","2.0.0","163470","prhh5yc92ve","A17689315","","","","","<img src=""stimuli/c3_sub1.jpg"" style=""width:200px;height:200px; margin: 5px;""><img src=""stimuli/c3_sup2.jpg"" style=""width:200px;height:200px; margin: 5px;""><img src=""stimuli/c3_sup1.jpg"" style=""width:200px;height:200px; margin: 5px;""><p>Here are some rabs. Can you give Mr. Frog all the other rabs?</p>
                                 <p>Click on all of the rabs below. If you change your mind, you can unselect any image.</p>
                                 <p>Click the Submit button when you are done selecting all the rabs.</p>","","3-item","animals","superordinate","[""stimuli/c3_bas3.jpg"",""stimuli/c3_sup6.jpg"",""stimuli/c3_sub5.jpg"",""stimuli/c3_sup4.jpg"",""stimuli/c3_sup5.jpg"",""stimuli/c3_sub4.jpg"",""stimuli/c3_bas4.jpg"",""stimuli/c3_sup3.jpg""]","[7,1,11,9,14,12,22,17]","[67599,67959,68766,69294,69894,70438,71231,71669]","[""select"",""select"",""select"",""select"",""select"",""select"",""select"",""select""]","[""stimuli/c3_bas3.jpg"",""stimuli/c3_sup6.jpg"",""stimuli/c3_sub5.jpg"",""stimuli/c3_sup4.jpg"",""stimuli/c3_sup5.jpg"",""stimuli/c3_sub4.jpg"",""stimuli/c3_bas4.jpg"",""stimuli/c3_sup3.jpg""]","72349"
"","","html-button-response","16","2.0.0","170250","prhh5yc92ve","A17689315","","","","","<img src=""stimuli/c2_sup2.jpg"" style=""width:200px;height:200px; margin: 5px;""><img src=""stimuli/c2_sub1.jpg"" style=""width:200px;height:200px; margin: 5px;""><img src=""stimuli/c2_sup1.jpg"" style=""width:200px;height:200px; margin: 5px;""><p>Here are some rifs. Can you give Mr. Frog all the other rifs?</p>
                                 <p>Click on all of the rifs below. If you change your mind, you can unselect any image.</p>
                                 <p>Click the Submit button when you are done selecting all the rifs.</p>","","3-item","vehicles","superordinate","[""stimuli/c2_sub5.jpg"",""stimuli/c2_sub4.jpg"",""stimuli/c2_bas3.jpg"",""stimuli/c2_bas4.jpg"",""stimuli/c2_sup5.jpg"",""stimuli/c2_sup3.jpg"",""stimuli/c2_sup6.jpg"",""stimuli/c2_sup4.jpg""]","[1,8,13,12,20,23,17,4]","[1636,2588,3052,3483,4092,4970,5322,5762]","[""select"",""select"",""select"",""select"",""select"",""select"",""select"",""select""]","[""stimuli/c2_sub5.jpg"",""stimuli/c2_sub4.jpg"",""stimuli/c2_bas3.jpg"",""stimuli/c2_bas4.jpg"",""stimuli/c2_sup5.jpg"",""stimuli/c2_sup3.jpg"",""stimuli/c2_sup6.jpg"",""stimuli/c2_sup4.jpg""]","6779"
"","","html-button-response","17","2.0.0","176576","prhh5yc92ve","A17689315","","","","","<img src=""stimuli/c3_bas1.jpg"" style=""width:200px;height:200px; margin: 5px;""><img src=""stimuli/c3_bas2.jpg"" style=""width:200px;height:200px; margin: 5px;""><img src=""stimuli/c3_sub1.jpg"" style=""width:200px;height:200px; margin: 5px;""><p>Here are some tevs. Can you give Mr. Frog all the other tevs?</p>
                                 <p>Click on all of the tevs below. If you change your mind, you can unselect any image.</p>
                                 <p>Click the Submit button when you are done selecting all the tevs.</p>","","3-item","animals","basic","[""stimuli/c3_sub5.jpg"",""stimuli/c3_sub4.jpg"",""stimuli/c3_bas4.jpg"",""stimuli/c3_bas3.jpg""]","[8,3,5,14]","[2253,2604,3563,4787]","[""select"",""select"",""select"",""select""]","[""stimuli/c3_sub5.jpg"",""stimuli/c3_sub4.jpg"",""stimuli/c3_bas4.jpg"",""stimuli/c3_bas3.jpg""]","6323"
"","3733","html-keyboard-response","18","2.0.0","180310","prhh5yc92ve","A17689315","","","","","
      <p>Thank you for playing! This was a big help for Mr. Frog!</p>
      <img src=""stimuli/mrfrog.png"" alt=""Mr. Frog"" style=""width:300px;height:300px;"">
      <p><i>Debrief</i>: In this experiment, we wanted to see how people learn subordinate word meanings (e.g., “dalmatian”) when</p>
      <p>superordinate (e.g., “animal”) and basic-level (e.g., “dog”) meanings can also be reasonable label referents.</p>
      <p>We thought that when presented with three subordinate exemplars (aka the trials with three images), a word will be generalized</p>
      <p>to the subordinate level more often than when presented with one subordinate exemplar (aka the trials with one image).</p>
      <p><b>*Please press any key to save data.*</b></p>
  ",";","","","","","","","","",""
