"success","rt","trial_type","trial_index","plugin_version","time_elapsed","random_id","participant","timeout","failed_images","failed_audio","failed_video","stimulus","response","condition","category","level","selection_array","selection_index","rt_array","selection_type_array","final_choice_array","final_rt"
"true","1413","fullscreen","0","null","2419","puvswd4q5jk","cheetah","","","","","","","","","","","","","","",""
"true","","preload","1","2.0.0","2814","puvswd4q5jk","cheetah","false","[]","[]","[]","","","","","","","","","","",""
"","702","html-keyboard-response","2","2.0.0","3518","puvswd4q5jk","cheetah","","","","","Welcome to the experiment. Press any key to begin."," ","","","","","","","","",""
"","3195","survey-text","3","2.0.0","6718","puvswd4q5jk","cheetah","","","","","","{""participant_id"":""cheetah""}","","","","","","","","",""
"","5535","html-keyboard-response","4","2.0.0","12255","puvswd4q5jk","cheetah","","","","","
  <p><b>This is Mr. Frog!</b></p>
  <img src=""stimuli/mrfrog.png"" alt=""Mr. Frog"" style=""width:300px;height:300px;"">
  <p>He speaks a different language and needs help finding the items he wants. Can you help Mr. Frog?</p>
  <p>Press any key to move to the next page.</p>
"," ","","","","","","","","",""
"","15236","html-keyboard-response","5","2.0.0","27492","puvswd4q5jk","cheetah","","","","","
  <img src=""stimuli/mrfrog.png"" alt=""Mr. Frog"" style=""width:300px;height:300px;"">
  <p>In each trial, you will be shown an image that will be labeled with a word in the language that Mr. Frog speaks. </p>
  <p>Your job will be to select all the items that you think matches what Mr. Frog is asking for. </p>
  <p>Press any key to begin.</p>
"," ","","","","","","","","",""
"","","html-button-response","6","2.0.0","47480","puvswd4q5jk","cheetah","","","","","<img src=""stimuli/c1_sub1.jpg"" style=""width:200px;height:200px;""> 
              <p>Here is a rab. Can you give Mr. Frog all the other rabs?</p>
              <p>Click on all of the rabs below. If you change your mind, you can unselect any image.</p>
              <p>Click the Submit button when you are done selecting all the rabs.</p>","","1-item","vegetables","one-subordinate","[""stimuli/c1_bas4.jpg"",""stimuli/c1_bas3.jpg"",""stimuli/c1_sub4.jpg"",""stimuli/c1_sub5.jpg""]","[2,7,10,11]","[9887,10521,11253,12239]","[""select"",""select"",""select"",""select""]","[""stimuli/c1_bas4.jpg"",""stimuli/c1_bas3.jpg"",""stimuli/c1_sub4.jpg"",""stimuli/c1_sub5.jpg""]","19982"
"","","html-button-response","7","2.0.0","60298","puvswd4q5jk","cheetah","","","","","<img src=""stimuli/c3_sub1.jpg"" style=""width:200px;height:200px;""> 
              <p>Here is a rif. Can you give Mr. Frog all the other rifs?</p>
              <p>Click on all of the rifs below. If you change your mind, you can unselect any image.</p>
              <p>Click the Submit button when you are done selecting all the rifs.</p>","","1-item","animals","one-subordinate","[""stimuli/c3_sub4.jpg"",""stimuli/c3_sub5.jpg"",""stimuli/c3_bas3.jpg"",""stimuli/c3_bas4.jpg""]","[4,11,6,7]","[6688,7542,8526,9105]","[""select"",""select"",""select"",""select""]","[""stimuli/c3_sub4.jpg"",""stimuli/c3_sub5.jpg"",""stimuli/c3_bas3.jpg"",""stimuli/c3_bas4.jpg""]","12814"
"","","html-button-response","8","2.0.0","71735","puvswd4q5jk","cheetah","","","","","<img src=""stimuli/c2_sub1.jpg"" style=""width:200px;height:200px;""> 
              <p>Here is a wug. Can you give Mr. Frog all the other wugs?</p>
              <p>Click on all of the wugs below. If you change your mind, you can unselect any image.</p>
              <p>Click the Submit button when you are done selecting all the wugs.</p>","","1-item","vehicles","one-subordinate","[""stimuli/c2_sub5.jpg"",""stimuli/c2_sub4.jpg"",""stimuli/c2_bas4.jpg"",""stimuli/c2_bas3.jpg""]","[10,16,14,7]","[2535,3055,8894,9488]","[""select"",""select"",""select"",""select""]","[""stimuli/c2_sub5.jpg"",""stimuli/c2_sub4.jpg"",""stimuli/c2_bas4.jpg"",""stimuli/c2_bas3.jpg""]","11433"
"","","html-button-response","9","2.0.0","83645","puvswd4q5jk","cheetah","","","","","<img src=""stimuli/c2_bas2.jpg"" style=""width:200px;height:200px; margin: 5px;""><img src=""stimuli/c2_bas1.jpg"" style=""width:200px;height:200px; margin: 5px;""><img src=""stimuli/c2_sub1.jpg"" style=""width:200px;height:200px; margin: 5px;""><p>Here are some tevs. Can you give Mr. Frog all the other tevs?</p>
                                 <p>Click on all of the tevs below. If you change your mind, you can unselect any image.</p>
                                 <p>Click the Submit button when you are done selecting all the tevs.</p>","","3-item","vehicles","basic","[""stimuli/c2_sub4.jpg"",""stimuli/c2_sub5.jpg"",""stimuli/c2_bas4.jpg"",""stimuli/c2_bas3.jpg""]","[14,7,6,22]","[7194,7780,9562,10668]","[""select"",""select"",""select"",""select""]","[""stimuli/c2_sub4.jpg"",""stimuli/c2_sub5.jpg"",""stimuli/c2_bas4.jpg"",""stimuli/c2_bas3.jpg""]","11905"
"","","html-button-response","10","2.0.0","91325","puvswd4q5jk","cheetah","","","","","<img src=""stimuli/c3_sub1.jpg"" style=""width:200px;height:200px; margin: 5px;""><img src=""stimuli/c3_bas1.jpg"" style=""width:200px;height:200px; margin: 5px;""><img src=""stimuli/c3_bas2.jpg"" style=""width:200px;height:200px; margin: 5px;""><p>Here are some feps. Can you give Mr. Frog all the other feps?</p>
                                 <p>Click on all of the feps below. If you change your mind, you can unselect any image.</p>
                                 <p>Click the Submit button when you are done selecting all the feps.</p>","","3-item","animals","basic","[""stimuli/c3_bas4.jpg"",""stimuli/c3_bas3.jpg"",""stimuli/c3_sub5.jpg"",""stimuli/c3_sub4.jpg""]","[2,8,9,6]","[3893,4316,4756,5650]","[""select"",""select"",""select"",""select""]","[""stimuli/c3_bas4.jpg"",""stimuli/c3_bas3.jpg"",""stimuli/c3_sub5.jpg"",""stimuli/c3_sub4.jpg""]","7676"
"","","html-button-response","11","2.0.0","99379","puvswd4q5jk","cheetah","","","","","<img src=""stimuli/c1_sup1.jpg"" style=""width:200px;height:200px; margin: 5px;""><img src=""stimuli/c1_sub1.jpg"" style=""width:200px;height:200px; margin: 5px;""><img src=""stimuli/c1_sup2.jpg"" style=""width:200px;height:200px; margin: 5px;""><p>Here are some sibs. Can you give Mr. Frog all the other sibs?</p>
                                 <p>Click on all of the sibs below. If you change your mind, you can unselect any image.</p>
                                 <p>Click the Submit button when you are done selecting all the sibs.</p>","","3-item","vegetables","superordinate","[""stimuli/c1_sub5.jpg"",""stimuli/c1_sup4.jpg"",""stimuli/c1_bas3.jpg"",""stimuli/c1_sup6.jpg"",""stimuli/c1_sup5.jpg"",""stimuli/c1_sup3.jpg"",""stimuli/c1_sub4.jpg"",""stimuli/c1_bas4.jpg""]","[5,11,2,7,14,12,21,15]","[2713,3139,3805,4503,4959,5455,6162,6610]","[""select"",""select"",""select"",""select"",""select"",""select"",""select"",""select""]","[""stimuli/c1_sub5.jpg"",""stimuli/c1_sup4.jpg"",""stimuli/c1_bas3.jpg"",""stimuli/c1_sup6.jpg"",""stimuli/c1_sup5.jpg"",""stimuli/c1_sup3.jpg"",""stimuli/c1_sub4.jpg"",""stimuli/c1_bas4.jpg""]","8050"
"","","html-button-response","12","2.0.0","113876","puvswd4q5jk","cheetah","","","","","<img src=""stimuli/c2_sup1.jpg"" style=""width:200px;height:200px; margin: 5px;""><img src=""stimuli/c2_sup2.jpg"" style=""width:200px;height:200px; margin: 5px;""><img src=""stimuli/c2_sub1.jpg"" style=""width:200px;height:200px; margin: 5px;""><p>Here are some zoms. Can you give Mr. Frog all the other zoms?</p>
                                 <p>Click on all of the zoms below. If you change your mind, you can unselect any image.</p>
                                 <p>Click the Submit button when you are done selecting all the zoms.</p>","","3-item","vehicles","superordinate","[""stimuli/c2_bas4.jpg"",""stimuli/c2_sup4.jpg"",""stimuli/c2_bas3.jpg"",""stimuli/c2_sub4.jpg"",""stimuli/c2_sub5.jpg"",""stimuli/c2_sup3.jpg"",""stimuli/c2_sup5.jpg"",""stimuli/c2_sup6.jpg""]","[2,9,15,16,17,5,13,20]","[8815,9295,9734,10126,10531,11339,12492,13021]","[""select"",""select"",""select"",""select"",""select"",""select"",""select"",""select""]","[""stimuli/c2_bas4.jpg"",""stimuli/c2_sup4.jpg"",""stimuli/c2_bas3.jpg"",""stimuli/c2_sub4.jpg"",""stimuli/c2_sub5.jpg"",""stimuli/c2_sup3.jpg"",""stimuli/c2_sup5.jpg"",""stimuli/c2_sup6.jpg""]","14493"
"","","html-button-response","13","2.0.0","119001","puvswd4q5jk","cheetah","","","","","<img src=""stimuli/c3_sub3.jpg"" style=""width:200px;height:200px; margin: 5px;""><img src=""stimuli/c3_sub1.jpg"" style=""width:200px;height:200px; margin: 5px;""><img src=""stimuli/c3_sub2.jpg"" style=""width:200px;height:200px; margin: 5px;""><p>Here are some rifs. Can you give Mr. Frog all the other rifs?</p>
                                 <p>Click on all of the rifs below. If you change your mind, you can unselect any image.</p>
                                 <p>Click the Submit button when you are done selecting all the rifs.</p>","","3-item","animals","subordinate","[""stimuli/c3_sub4.jpg"",""stimuli/c3_sub5.jpg""]","[5,6]","[2991,4100]","[""select"",""select""]","[""stimuli/c3_sub4.jpg"",""stimuli/c3_sub5.jpg""]","5121"
"","","html-button-response","14","2.0.0","127413","puvswd4q5jk","cheetah","","","","","<img src=""stimuli/c1_sub1.jpg"" style=""width:200px;height:200px; margin: 5px;""><img src=""stimuli/c1_sub2.jpg"" style=""width:200px;height:200px; margin: 5px;""><img src=""stimuli/c1_sub3.jpg"" style=""width:200px;height:200px; margin: 5px;""><p>Here are some rabs. Can you give Mr. Frog all the other rabs?</p>
                                 <p>Click on all of the rabs below. If you change your mind, you can unselect any image.</p>
                                 <p>Click the Submit button when you are done selecting all the rabs.</p>","","3-item","vegetables","subordinate","[""stimuli/c1_sub4.jpg"",""stimuli/c1_sub5.jpg""]","[5,14]","[2373,3007]","[""select"",""select""]","[""stimuli/c1_sub4.jpg"",""stimuli/c1_sub5.jpg""]","8408"
"","","html-button-response","15","2.0.0","132075","puvswd4q5jk","cheetah","","","","","<img src=""stimuli/c2_sub2.jpg"" style=""width:200px;height:200px; margin: 5px;""><img src=""stimuli/c2_sub3.jpg"" style=""width:200px;height:200px; margin: 5px;""><img src=""stimuli/c2_sub1.jpg"" style=""width:200px;height:200px; margin: 5px;""><p>Here are some wugs. Can you give Mr. Frog all the other wugs?</p>
                                 <p>Click on all of the wugs below. If you change your mind, you can unselect any image.</p>
                                 <p>Click the Submit button when you are done selecting all the wugs.</p>","","3-item","vehicles","subordinate","[""stimuli/c2_sub4.jpg"",""stimuli/c2_sub5.jpg""]","[1,8]","[2617,3260]","[""select"",""select""]","[""stimuli/c2_sub4.jpg"",""stimuli/c2_sub5.jpg""]","4658"
"","","html-button-response","16","2.0.0","139073","puvswd4q5jk","cheetah","","","","","<img src=""stimuli/c1_bas2.jpg"" style=""width:200px;height:200px; margin: 5px;""><img src=""stimuli/c1_bas1.jpg"" style=""width:200px;height:200px; margin: 5px;""><img src=""stimuli/c1_sub1.jpg"" style=""width:200px;height:200px; margin: 5px;""><p>Here are some meps. Can you give Mr. Frog all the other meps?</p>
                                 <p>Click on all of the meps below. If you change your mind, you can unselect any image.</p>
                                 <p>Click the Submit button when you are done selecting all the meps.</p>","","3-item","vegetables","basic","[""stimuli/c1_sub5.jpg"",""stimuli/c1_bas3.jpg"",""stimuli/c1_sub4.jpg"",""stimuli/c1_bas4.jpg""]","[2,7,15,11]","[3861,4324,4878,5400]","[""select"",""select"",""select"",""select""]","[""stimuli/c1_sub5.jpg"",""stimuli/c1_bas3.jpg"",""stimuli/c1_sub4.jpg"",""stimuli/c1_bas4.jpg""]","6994"
"","","html-button-response","17","2.0.0","150900","puvswd4q5jk","cheetah","","","","","<img src=""stimuli/c3_sub1.jpg"" style=""width:200px;height:200px; margin: 5px;""><img src=""stimuli/c3_sup1.jpg"" style=""width:200px;height:200px; margin: 5px;""><img src=""stimuli/c3_sup2.jpg"" style=""width:200px;height:200px; margin: 5px;""><p>Here are some tobs. Can you give Mr. Frog all the other tobs?</p>
                                 <p>Click on all of the tobs below. If you change your mind, you can unselect any image.</p>
                                 <p>Click the Submit button when you are done selecting all the tobs.</p>","","3-item","animals","superordinate","[""stimuli/c3_sup5.jpg"",""stimuli/c3_sub5.jpg"",""stimuli/c3_bas4.jpg"",""stimuli/c3_sup3.jpg"",""stimuli/c3_sup4.jpg"",""stimuli/c3_sub4.jpg"",""stimuli/c3_sup6.jpg"",""stimuli/c3_bas3.jpg""]","[5,3,2,19,14,11,17,23]","[3537,4104,4552,5977,6528,7301,7741,8166]","[""select"",""select"",""select"",""select"",""select"",""select"",""select"",""select""]","[""stimuli/c3_sup5.jpg"",""stimuli/c3_sub5.jpg"",""stimuli/c3_bas4.jpg"",""stimuli/c3_sup3.jpg"",""stimuli/c3_sup4.jpg"",""stimuli/c3_sub4.jpg"",""stimuli/c3_sup6.jpg"",""stimuli/c3_bas3.jpg""]","11824"
"","11366","html-keyboard-response","18","2.0.0","162268","puvswd4q5jk","cheetah","","","","","
      <p>Thank you for playing! This was a big help for Mr. Frog!</p>
      <img src=""stimuli/mrfrog.png"" alt=""Mr. Frog"" style=""width:300px;height:300px;"">
      <p><i>Debrief</i>: In this experiment, we wanted to see how people learn subordinate word meanings (e.g., “dalmatian”) when</p>
      <p>superordinate (e.g., “animal”) and basic-level (e.g., “dog”) meanings can also be reasonable label referents.</p>
      <p>We thought that when presented with three subordinate exemplars (aka the trials with three images), a word will be generalized</p>
      <p>to the subordinate level more often than when presented with one subordinate exemplar (aka the trials with one image).</p>
      <p><b>*Please press any key to save data.*</b></p>
  "," ","","","","","","","","",""
