"success","rt","trial_type","trial_index","plugin_version","time_elapsed","random_id","participant","timeout","failed_images","failed_audio","failed_video","stimulus","response","condition","category","level","selection_array","selection_index","rt_array","selection_type_array","final_choice_array","final_rt"
"true","225054","fullscreen","0","null","226052","pz2qn5qeqah","lion","","","","","","","","","","","","","","",""
"true","","preload","1","2.0.0","226395","pz2qn5qeqah","lion","false","[]","[]","[]","","","","","","","","","","",""
"","831","html-keyboard-response","2","2.0.0","227227","pz2qn5qeqah","lion","","","","","Welcome to the experiment. Press any key to begin."," ","","","","","","","","",""
"","2004","survey-text","3","2.0.0","229238","pz2qn5qeqah","lion","","","","","","{""participant_id"":""lion""}","","","","","","","","",""
"","15635","html-keyboard-response","4","2.0.0","244874","pz2qn5qeqah","lion","","","","","
  <p><b>This is Mr. Frog!</b></p>
  <img src=""stimuli/mrfrog.png"" alt=""Mr. Frog"" style=""width:300px;height:300px;"">
  <p>He speaks a different language and needs help finding the items he wants. Can you help Mr. Frog?</p>
  <p>Press any key to move to the next page.</p>
"," ","","","","","","","","",""
"","16609","html-keyboard-response","5","2.0.0","261483","pz2qn5qeqah","lion","","","","","
  <img src=""stimuli/mrfrog.png"" alt=""Mr. Frog"" style=""width:300px;height:300px;"">
  <p>In each trial, you will be shown an image that will be labeled with a word in the language that Mr. Frog speaks. </p>
  <p>Your job will be to select all the items that you think matches what Mr. Frog is asking for. </p>
  <p>Press any key to begin.</p>
"," ","","","","","","","","",""
"","","html-button-response","6","2.0.0","328238","pz2qn5qeqah","lion","","","","","<img src=""stimuli/c2_sub1.jpg"" style=""width:200px;height:200px;""> 
              <p>Here is a mep. Can you give Mr. Frog all the other meps?</p>
              <p>Click on all of the meps below. If you change your mind, you can unselect any image.</p>
              <p>Click the Submit button when you are done selecting all the meps.</p>","","1-item","vehicles","one-subordinate","[""stimuli/c2_sub4.jpg"",""stimuli/c2_sub5.jpg""]","[0,6]","[63486,64038]","[""select"",""select""]","[""stimuli/c2_sub4.jpg"",""stimuli/c2_sub5.jpg""]","66752"
"","","html-button-response","7","2.0.0","370870","pz2qn5qeqah","lion","","","","","<img src=""stimuli/c1_sub1.jpg"" style=""width:200px;height:200px;""> 
              <p>Here is a wug. Can you give Mr. Frog all the other wugs?</p>
              <p>Click on all of the wugs below. If you change your mind, you can unselect any image.</p>
              <p>Click the Submit button when you are done selecting all the wugs.</p>","","1-item","vegetables","one-subordinate","[""stimuli/c1_sub5.jpg"",""stimuli/c1_sub4.jpg"",""stimuli/c1_bas3.jpg"",""stimuli/c1_bas4.jpg""]","[1,7,20,22]","[38514,39114,40000,40663]","[""select"",""select"",""select"",""select""]","[""stimuli/c1_sub5.jpg"",""stimuli/c1_sub4.jpg"",""stimuli/c1_bas3.jpg"",""stimuli/c1_bas4.jpg""]","42630"
"","","html-button-response","8","2.0.0","398173","pz2qn5qeqah","lion","","","","","<img src=""stimuli/c3_sub1.jpg"" style=""width:200px;height:200px;""> 
              <p>Here is a sib. Can you give Mr. Frog all the other sibs?</p>
              <p>Click on all of the sibs below. If you change your mind, you can unselect any image.</p>
              <p>Click the Submit button when you are done selecting all the sibs.</p>","","1-item","animals","one-subordinate","[""stimuli/c3_sub4.jpg"",""stimuli/c3_sub5.jpg""]","[17,19]","[14699,15601]","[""select"",""select""]","[""stimuli/c3_sub4.jpg"",""stimuli/c3_sub5.jpg""]","27301"
"","","html-button-response","9","2.0.0","436553","pz2qn5qeqah","lion","","","","","<img src=""stimuli/c3_sub1.jpg"" style=""width:200px;height:200px; margin: 5px;""><img src=""stimuli/c3_sup1.jpg"" style=""width:200px;height:200px; margin: 5px;""><img src=""stimuli/c3_sup2.jpg"" style=""width:200px;height:200px; margin: 5px;""><p>Here are some rifs. Can you give Mr. Frog all the other rifs?</p>
                                 <p>Click on all of the rifs below. If you change your mind, you can unselect any image.</p>
                                 <p>Click the Submit button when you are done selecting all the rifs.</p>","","3-item","animals","superordinate","[""stimuli/c3_bas4.jpg"",""stimuli/c3_bas3.jpg"",""stimuli/c3_sub5.jpg"",""stimuli/c3_sup3.jpg"",""stimuli/c3_sup4.jpg"",""stimuli/c3_sub4.jpg"",""stimuli/c3_sup5.jpg"",""stimuli/c3_sup6.jpg""]","[6,7,13,18,22,23,10,16]","[25329,25798,26294,27245,28628,29061,30979,32629]","[""select"",""select"",""select"",""select"",""select"",""select"",""select"",""select""]","[""stimuli/c3_bas4.jpg"",""stimuli/c3_bas3.jpg"",""stimuli/c3_sub5.jpg"",""stimuli/c3_sup3.jpg"",""stimuli/c3_sup4.jpg"",""stimuli/c3_sub4.jpg"",""stimuli/c3_sup5.jpg"",""stimuli/c3_sup6.jpg""]","38378"
"","","html-button-response","10","2.0.0","458105","pz2qn5qeqah","lion","","","","","<img src=""stimuli/c3_bas1.jpg"" style=""width:200px;height:200px; margin: 5px;""><img src=""stimuli/c3_sub1.jpg"" style=""width:200px;height:200px; margin: 5px;""><img src=""stimuli/c3_bas2.jpg"" style=""width:200px;height:200px; margin: 5px;""><p>Here are some zoms. Can you give Mr. Frog all the other zoms?</p>
                                 <p>Click on all of the zoms below. If you change your mind, you can unselect any image.</p>
                                 <p>Click the Submit button when you are done selecting all the zoms.</p>","","3-item","animals","basic","[""stimuli/c3_bas3.jpg"",""stimuli/c3_sub5.jpg"",""stimuli/c3_sub4.jpg"",""stimuli/c3_bas4.jpg""]","[9,10,11,21]","[8413,8913,9428,10147]","[""select"",""select"",""select"",""select""]","[""stimuli/c3_bas3.jpg"",""stimuli/c3_sub5.jpg"",""stimuli/c3_sub4.jpg"",""stimuli/c3_bas4.jpg""]","21549"
"","","html-button-response","11","2.0.0","478702","pz2qn5qeqah","lion","","","","","<img src=""stimuli/c3_sub1.jpg"" style=""width:200px;height:200px; margin: 5px;""><img src=""stimuli/c3_sub2.jpg"" style=""width:200px;height:200px; margin: 5px;""><img src=""stimuli/c3_sub3.jpg"" style=""width:200px;height:200px; margin: 5px;""><p>Here are some sibs. Can you give Mr. Frog all the other sibs?</p>
                                 <p>Click on all of the sibs below. If you change your mind, you can unselect any image.</p>
                                 <p>Click the Submit button when you are done selecting all the sibs.</p>","","3-item","animals","subordinate","[""stimuli/c3_sub4.jpg"",""stimuli/c3_sub5.jpg""]","[15,19]","[6229,7130]","[""select"",""select""]","[""stimuli/c3_sub4.jpg"",""stimuli/c3_sub5.jpg""]","20594"
"","","html-button-response","12","2.0.0","507785","pz2qn5qeqah","lion","","","","","<img src=""stimuli/c2_sup2.jpg"" style=""width:200px;height:200px; margin: 5px;""><img src=""stimuli/c2_sup1.jpg"" style=""width:200px;height:200px; margin: 5px;""><img src=""stimuli/c2_sub1.jpg"" style=""width:200px;height:200px; margin: 5px;""><p>Here are some tevs. Can you give Mr. Frog all the other tevs?</p>
                                 <p>Click on all of the tevs below. If you change your mind, you can unselect any image.</p>
                                 <p>Click the Submit button when you are done selecting all the tevs.</p>","","3-item","vehicles","superordinate","[""stimuli/c2_bas4.jpg"",""stimuli/c2_bas3.jpg"",""stimuli/c2_sup4.jpg"",""stimuli/c2_sup5.jpg"",""stimuli/c2_sup3.jpg"",""stimuli/c2_sup6.jpg"",""stimuli/c2_sub4.jpg"",""stimuli/c2_sub5.jpg""]","[0,2,4,10,14,18,21,23]","[17446,18313,19096,19933,20613,21348,21996,22647]","[""select"",""select"",""select"",""select"",""select"",""select"",""select"",""select""]","[""stimuli/c2_bas4.jpg"",""stimuli/c2_bas3.jpg"",""stimuli/c2_sup4.jpg"",""stimuli/c2_sup5.jpg"",""stimuli/c2_sup3.jpg"",""stimuli/c2_sup6.jpg"",""stimuli/c2_sub4.jpg"",""stimuli/c2_sub5.jpg""]","29079"
"","","html-button-response","13","2.0.0","565902","pz2qn5qeqah","lion","","","","","<img src=""stimuli/c2_sub1.jpg"" style=""width:200px;height:200px; margin: 5px;""><img src=""stimuli/c2_bas2.jpg"" style=""width:200px;height:200px; margin: 5px;""><img src=""stimuli/c2_bas1.jpg"" style=""width:200px;height:200px; margin: 5px;""><p>Here are some rabs. Can you give Mr. Frog all the other rabs?</p>
                                 <p>Click on all of the rabs below. If you change your mind, you can unselect any image.</p>
                                 <p>Click the Submit button when you are done selecting all the rabs.</p>","","3-item","vehicles","basic","[""stimuli/c2_sub4.jpg"",""stimuli/c2_bas4.jpg"",""stimuli/c2_bas3.jpg"",""stimuli/c2_sub5.jpg""]","[0,17,19,18]","[5081,6449,7382,11482]","[""select"",""select"",""select"",""select""]","[""stimuli/c2_sub4.jpg"",""stimuli/c2_bas4.jpg"",""stimuli/c2_bas3.jpg"",""stimuli/c2_sub5.jpg""]","58116"
"","","html-button-response","14","2.0.0","584589","pz2qn5qeqah","lion","","","","","<img src=""stimuli/c1_sub1.jpg"" style=""width:200px;height:200px; margin: 5px;""><img src=""stimuli/c1_bas1.jpg"" style=""width:200px;height:200px; margin: 5px;""><img src=""stimuli/c1_bas2.jpg"" style=""width:200px;height:200px; margin: 5px;""><p>Here are some feps. Can you give Mr. Frog all the other feps?</p>
                                 <p>Click on all of the feps below. If you change your mind, you can unselect any image.</p>
                                 <p>Click the Submit button when you are done selecting all the feps.</p>","","3-item","vegetables","basic","[""stimuli/c1_bas3.jpg"",""stimuli/c1_sub5.jpg"",""stimuli/c1_sub4.jpg"",""stimuli/c1_bas4.jpg""]","[4,9,17,12]","[5912,6696,7296,8413]","[""select"",""select"",""select"",""select""]","[""stimuli/c1_bas3.jpg"",""stimuli/c1_sub5.jpg"",""stimuli/c1_sub4.jpg"",""stimuli/c1_bas4.jpg""]","18684"
"","","html-button-response","15","2.0.0","596751","pz2qn5qeqah","lion","","","","","<img src=""stimuli/c1_sup2.jpg"" style=""width:200px;height:200px; margin: 5px;""><img src=""stimuli/c1_sup1.jpg"" style=""width:200px;height:200px; margin: 5px;""><img src=""stimuli/c1_sub1.jpg"" style=""width:200px;height:200px; margin: 5px;""><p>Here are some tobs. Can you give Mr. Frog all the other tobs?</p>
                                 <p>Click on all of the tobs below. If you change your mind, you can unselect any image.</p>
                                 <p>Click the Submit button when you are done selecting all the tobs.</p>","","3-item","vegetables","superordinate","[""stimuli/c1_bas3.jpg"",""stimuli/c1_sub5.jpg"",""stimuli/c1_sub4.jpg"",""stimuli/c1_sup4.jpg"",""stimuli/c1_sup5.jpg"",""stimuli/c1_sup6.jpg"",""stimuli/c1_sup3.jpg"",""stimuli/c1_bas4.jpg""]","[5,2,1,8,13,12,15,17]","[4160,5560,6060,6594,7243,7809,8392,9027]","[""select"",""select"",""select"",""select"",""select"",""select"",""select"",""select""]","[""stimuli/c1_bas3.jpg"",""stimuli/c1_sub5.jpg"",""stimuli/c1_sub4.jpg"",""stimuli/c1_sup4.jpg"",""stimuli/c1_sup5.jpg"",""stimuli/c1_sup6.jpg"",""stimuli/c1_sup3.jpg"",""stimuli/c1_bas4.jpg""]","12160"
"","","html-button-response","16","2.0.0","604700","pz2qn5qeqah","lion","","","","","<img src=""stimuli/c1_sub1.jpg"" style=""width:200px;height:200px; margin: 5px;""><img src=""stimuli/c1_sub2.jpg"" style=""width:200px;height:200px; margin: 5px;""><img src=""stimuli/c1_sub3.jpg"" style=""width:200px;height:200px; margin: 5px;""><p>Here are some wugs. Can you give Mr. Frog all the other wugs?</p>
                                 <p>Click on all of the wugs below. If you change your mind, you can unselect any image.</p>
                                 <p>Click the Submit button when you are done selecting all the wugs.</p>","","3-item","vegetables","subordinate","[""stimuli/c1_sub4.jpg"",""stimuli/c1_sub5.jpg""]","[9,22]","[4233,5135]","[""select"",""select""]","[""stimuli/c1_sub4.jpg"",""stimuli/c1_sub5.jpg""]","7947"
"","","html-button-response","17","2.0.0","614201","pz2qn5qeqah","lion","","","","","<img src=""stimuli/c2_sub2.jpg"" style=""width:200px;height:200px; margin: 5px;""><img src=""stimuli/c2_sub1.jpg"" style=""width:200px;height:200px; margin: 5px;""><img src=""stimuli/c2_sub3.jpg"" style=""width:200px;height:200px; margin: 5px;""><p>Here are some meps. Can you give Mr. Frog all the other meps?</p>
                                 <p>Click on all of the meps below. If you change your mind, you can unselect any image.</p>
                                 <p>Click the Submit button when you are done selecting all the meps.</p>","","3-item","vehicles","subordinate","[""stimuli/c2_sub5.jpg"",""stimuli/c2_sub4.jpg""]","[9,20]","[5033,6031]","[""select"",""select""]","[""stimuli/c2_sub5.jpg"",""stimuli/c2_sub4.jpg""]","9498"
"","10150","html-keyboard-response","18","2.0.0","624354","pz2qn5qeqah","lion","","","","","
      <p>Thank you for playing! This was a big help for Mr. Frog!</p>
      <img src=""stimuli/mrfrog.png"" alt=""Mr. Frog"" style=""width:300px;height:300px;"">
      <p><i>Debrief</i>: In this experiment, we wanted to see how people learn subordinate word meanings (e.g., “dalmatian”) when</p>
      <p>superordinate (e.g., “animal”) and basic-level (e.g., “dog”) meanings can also be reasonable label referents.</p>
      <p>We thought that when presented with three subordinate exemplars (aka the trials with three images), a word will be generalized</p>
      <p>to the subordinate level more often than when presented with one subordinate exemplar (aka the trials with one image).</p>
      <p><b>*Please press any key to save data.*</b></p>
  "," ","","","","","","","","",""
