"success","rt","trial_type","trial_index","plugin_version","time_elapsed","random_id","participant","timeout","failed_images","failed_audio","failed_video","stimulus","response","condition","category","level","selection_array","selection_index","rt_array","selection_type_array","final_choice_array","final_rt"
"true","1457","fullscreen","0","null","2466","pzq1ubhyvdn","turtle","","","","","","","","","","","","","","",""
"true","","preload","1","2.0.0","2888","pzq1ubhyvdn","turtle","false","[]","[]","[]","","","","","","","","","","",""
"","1097","html-keyboard-response","2","2.0.0","3986","pzq1ubhyvdn","turtle","","","","","Welcome to the experiment. Press any key to begin."," ","","","","","","","","",""
"","3998","survey-text","3","2.0.0","7990","pzq1ubhyvdn","turtle","","","","","","{""participant_id"":""turtle""}","","","","","","","","",""
"","93745","html-keyboard-response","4","2.0.0","101736","pzq1ubhyvdn","turtle","","","","","
  <p><b>This is Mr. Frog!</b></p>
  <img src=""stimuli/mrfrog.png"" alt=""Mr. Frog"" style=""width:300px;height:300px;"">
  <p>He speaks a different language and needs help finding the items he wants. Can you help Mr. Frog?</p>
  <p>Press any key to move to the next page.</p>
"," ","","","","","","","","",""
"","19343","html-keyboard-response","5","2.0.0","121081","pzq1ubhyvdn","turtle","","","","","
  <img src=""stimuli/mrfrog.png"" alt=""Mr. Frog"" style=""width:300px;height:300px;"">
  <p>In each trial, you will be shown an image that will be labeled with a word in the language that Mr. Frog speaks. </p>
  <p>Your job will be to select all the items that you think matches what Mr. Frog is asking for. </p>
  <p>Press any key to begin.</p>
"," ","","","","","","","","",""
"","","html-button-response","6","2.0.0","135546","pzq1ubhyvdn","turtle","","","","","<img src=""stimuli/c3_sub1.jpg"" style=""width:200px;height:200px;""> 
              <p>Here is a tev. Can you give Mr. Frog all the other tevs?</p>
              <p>Click on all of the tevs below. If you change your mind, you can unselect any image.</p>
              <p>Click the Submit button when you are done selecting all the tevs.</p>","","1-item","animals","one-subordinate","[""stimuli/c3_sub5.jpg"",""stimuli/c3_sub4.jpg""]","[5,19]","[11443,12543]","[""select"",""select""]","[""stimuli/c3_sub5.jpg"",""stimuli/c3_sub4.jpg""]","14461"
"","","html-button-response","7","2.0.0","143257","pzq1ubhyvdn","turtle","","","","","<img src=""stimuli/c2_sub1.jpg"" style=""width:200px;height:200px;""> 
              <p>Here is a mep. Can you give Mr. Frog all the other meps?</p>
              <p>Click on all of the meps below. If you change your mind, you can unselect any image.</p>
              <p>Click the Submit button when you are done selecting all the meps.</p>","","1-item","vehicles","one-subordinate","[""stimuli/c2_sub4.jpg"",""stimuli/c2_sub5.jpg""]","[7,12]","[3667,4309]","[""select"",""select""]","[""stimuli/c2_sub4.jpg"",""stimuli/c2_sub5.jpg""]","7707"
"","","html-button-response","8","2.0.0","151446","pzq1ubhyvdn","turtle","","","","","<img src=""stimuli/c1_sub1.jpg"" style=""width:200px;height:200px;""> 
              <p>Here is a wug. Can you give Mr. Frog all the other wugs?</p>
              <p>Click on all of the wugs below. If you change your mind, you can unselect any image.</p>
              <p>Click the Submit button when you are done selecting all the wugs.</p>","","1-item","vegetables","one-subordinate","[""stimuli/c1_sub5.jpg"",""stimuli/c1_sub4.jpg""]","[2,14]","[2395,3190]","[""select"",""select""]","[""stimuli/c1_sub5.jpg"",""stimuli/c1_sub4.jpg""]","8185"
"","","html-button-response","9","2.0.0","177630","pzq1ubhyvdn","turtle","","","","","<img src=""stimuli/c1_bas2.jpg"" style=""width:200px;height:200px; margin: 5px;""><img src=""stimuli/c1_sub1.jpg"" style=""width:200px;height:200px; margin: 5px;""><img src=""stimuli/c1_bas1.jpg"" style=""width:200px;height:200px; margin: 5px;""><p>Here are some rabs. Can you give Mr. Frog all the other rabs?</p>
                                 <p>Click on all of the rabs below. If you change your mind, you can unselect any image.</p>
                                 <p>Click the Submit button when you are done selecting all the rabs.</p>","","3-item","vegetables","basic","[""stimuli/c1_sub5.jpg"",""stimuli/c1_bas3.jpg"",""stimuli/c1_bas4.jpg"",""stimuli/c1_sub4.jpg""]","[0,17,19,18]","[3054,6755,8641,9757]","[""select"",""select"",""select"",""select""]","[""stimuli/c1_sub5.jpg"",""stimuli/c1_bas3.jpg"",""stimuli/c1_bas4.jpg"",""stimuli/c1_sub4.jpg""]","26180"
"","","html-button-response","10","2.0.0","188781","pzq1ubhyvdn","turtle","","","","","<img src=""stimuli/c1_sub2.jpg"" style=""width:200px;height:200px; margin: 5px;""><img src=""stimuli/c1_sub3.jpg"" style=""width:200px;height:200px; margin: 5px;""><img src=""stimuli/c1_sub1.jpg"" style=""width:200px;height:200px; margin: 5px;""><p>Here are some wugs. Can you give Mr. Frog all the other wugs?</p>
                                 <p>Click on all of the wugs below. If you change your mind, you can unselect any image.</p>
                                 <p>Click the Submit button when you are done selecting all the wugs.</p>","","3-item","vegetables","subordinate","[""stimuli/c1_sub4.jpg"",""stimuli/c1_sub5.jpg""]","[15,21]","[1818,2396]","[""select"",""select""]","[""stimuli/c1_sub4.jpg"",""stimuli/c1_sub5.jpg""]","11147"
"","","html-button-response","11","2.0.0","200251","pzq1ubhyvdn","turtle","","","","","<img src=""stimuli/c2_sub1.jpg"" style=""width:200px;height:200px; margin: 5px;""><img src=""stimuli/c2_sub3.jpg"" style=""width:200px;height:200px; margin: 5px;""><img src=""stimuli/c2_sub2.jpg"" style=""width:200px;height:200px; margin: 5px;""><p>Here are some meps. Can you give Mr. Frog all the other meps?</p>
                                 <p>Click on all of the meps below. If you change your mind, you can unselect any image.</p>
                                 <p>Click the Submit button when you are done selecting all the meps.</p>","","3-item","vehicles","subordinate","[""stimuli/c2_sub5.jpg"",""stimuli/c2_sub4.jpg""]","[18,6]","[7502,8763]","[""select"",""select""]","[""stimuli/c2_sub5.jpg"",""stimuli/c2_sub4.jpg""]","11468"
"","","html-button-response","12","2.0.0","212463","pzq1ubhyvdn","turtle","","","","","<img src=""stimuli/c2_bas1.jpg"" style=""width:200px;height:200px; margin: 5px;""><img src=""stimuli/c2_bas2.jpg"" style=""width:200px;height:200px; margin: 5px;""><img src=""stimuli/c2_sub1.jpg"" style=""width:200px;height:200px; margin: 5px;""><p>Here are some tobs. Can you give Mr. Frog all the other tobs?</p>
                                 <p>Click on all of the tobs below. If you change your mind, you can unselect any image.</p>
                                 <p>Click the Submit button when you are done selecting all the tobs.</p>","","3-item","vehicles","basic","[""stimuli/c2_sub4.jpg"",""stimuli/c2_sub5.jpg"",""stimuli/c2_bas4.jpg"",""stimuli/c2_bas3.jpg""]","[13,14,6,17]","[5713,6380,7770,9977]","[""select"",""select"",""select"",""select""]","[""stimuli/c2_sub4.jpg"",""stimuli/c2_sub5.jpg"",""stimuli/c2_bas4.jpg"",""stimuli/c2_bas3.jpg""]","12209"
"","","html-button-response","13","2.0.0","238146","pzq1ubhyvdn","turtle","","","","","<img src=""stimuli/c3_sup2.jpg"" style=""width:200px;height:200px; margin: 5px;""><img src=""stimuli/c3_sup1.jpg"" style=""width:200px;height:200px; margin: 5px;""><img src=""stimuli/c3_sub1.jpg"" style=""width:200px;height:200px; margin: 5px;""><p>Here are some sibs. Can you give Mr. Frog all the other sibs?</p>
                                 <p>Click on all of the sibs below. If you change your mind, you can unselect any image.</p>
                                 <p>Click the Submit button when you are done selecting all the sibs.</p>","","3-item","animals","superordinate","[""stimuli/c3_sub5.jpg"",""stimuli/c3_sub4.jpg"",""stimuli/c3_bas3.jpg"",""stimuli/c3_sup3.jpg"",""stimuli/c3_sup4.jpg"",""stimuli/c3_sup6.jpg"",""stimuli/c3_sup5.jpg"",""stimuli/c3_bas4.jpg""]","[16,23,2,3,8,12,11,15]","[5608,6411,19569,20188,21303,21963,22933,24201]","[""select"",""select"",""select"",""select"",""select"",""select"",""select"",""select""]","[""stimuli/c3_sub5.jpg"",""stimuli/c3_sub4.jpg"",""stimuli/c3_bas3.jpg"",""stimuli/c3_sup3.jpg"",""stimuli/c3_sup4.jpg"",""stimuli/c3_sup6.jpg"",""stimuli/c3_sup5.jpg"",""stimuli/c3_bas4.jpg""]","25679"
"","","html-button-response","14","2.0.0","252569","pzq1ubhyvdn","turtle","","","","","<img src=""stimuli/c2_sub1.jpg"" style=""width:200px;height:200px; margin: 5px;""><img src=""stimuli/c2_sup1.jpg"" style=""width:200px;height:200px; margin: 5px;""><img src=""stimuli/c2_sup2.jpg"" style=""width:200px;height:200px; margin: 5px;""><p>Here are some feps. Can you give Mr. Frog all the other feps?</p>
                                 <p>Click on all of the feps below. If you change your mind, you can unselect any image.</p>
                                 <p>Click the Submit button when you are done selecting all the feps.</p>","","3-item","vehicles","superordinate","[""stimuli/c2_bas3.jpg"",""stimuli/c2_bas4.jpg"",""stimuli/c2_sup6.jpg"",""stimuli/c2_sub5.jpg""]","[4,14,12,7]","[2980,6706,8481,9100]","[""select"",""select"",""select"",""select""]","[""stimuli/c2_bas3.jpg"",""stimuli/c2_bas4.jpg"",""stimuli/c2_sup6.jpg"",""stimuli/c2_sub5.jpg""]","14420"
"","","html-button-response","15","2.0.0","263829","pzq1ubhyvdn","turtle","","","","","<img src=""stimuli/c3_sub1.jpg"" style=""width:200px;height:200px; margin: 5px;""><img src=""stimuli/c3_bas2.jpg"" style=""width:200px;height:200px; margin: 5px;""><img src=""stimuli/c3_bas1.jpg"" style=""width:200px;height:200px; margin: 5px;""><p>Here are some zoms. Can you give Mr. Frog all the other zoms?</p>
                                 <p>Click on all of the zoms below. If you change your mind, you can unselect any image.</p>
                                 <p>Click the Submit button when you are done selecting all the zoms.</p>","","3-item","animals","basic","[""stimuli/c3_sup3.jpg"",""stimuli/c3_sub5.jpg"",""stimuli/c3_bas4.jpg"",""stimuli/c3_sub4.jpg"",""stimuli/c3_bas3.jpg""]","[2,12,19,5,4]","[6175,7221,7910,9010,9516]","[""select"",""select"",""select"",""select"",""select""]","[""stimuli/c3_sup3.jpg"",""stimuli/c3_sub5.jpg"",""stimuli/c3_bas4.jpg"",""stimuli/c3_sub4.jpg"",""stimuli/c3_bas3.jpg""]","11258"
"","","html-button-response","16","2.0.0","284597","pzq1ubhyvdn","turtle","","","","","<img src=""stimuli/c1_sup1.jpg"" style=""width:200px;height:200px; margin: 5px;""><img src=""stimuli/c1_sup2.jpg"" style=""width:200px;height:200px; margin: 5px;""><img src=""stimuli/c1_sub1.jpg"" style=""width:200px;height:200px; margin: 5px;""><p>Here are some rifs. Can you give Mr. Frog all the other rifs?</p>
                                 <p>Click on all of the rifs below. If you change your mind, you can unselect any image.</p>
                                 <p>Click the Submit button when you are done selecting all the rifs.</p>","","3-item","vegetables","superordinate","[""stimuli/c1_bas3.jpg"",""stimuli/c1_sub4.jpg"",""stimuli/c1_sub5.jpg"",""stimuli/c1_sup4.jpg"",""stimuli/c1_sup6.jpg"",""stimuli/c1_bas4.jpg"",""stimuli/c1_bas3.jpg"",""stimuli/c1_sup3.jpg""]","[3,16,21,2,13,6,3,11]","[5351,6281,7091,14726,15441,16122,16854,17592]","[""select"",""select"",""select"",""select"",""select"",""select"",""unselect"",""select""]","[""stimuli/c1_sub4.jpg"",""stimuli/c1_sub5.jpg"",""stimuli/c1_sup4.jpg"",""stimuli/c1_sup6.jpg"",""stimuli/c1_bas4.jpg"",""stimuli/c1_sup3.jpg""]","20763"
"","","html-button-response","17","2.0.0","289654","pzq1ubhyvdn","turtle","","","","","<img src=""stimuli/c3_sub1.jpg"" style=""width:200px;height:200px; margin: 5px;""><img src=""stimuli/c3_sub3.jpg"" style=""width:200px;height:200px; margin: 5px;""><img src=""stimuli/c3_sub2.jpg"" style=""width:200px;height:200px; margin: 5px;""><p>Here are some tevs. Can you give Mr. Frog all the other tevs?</p>
                                 <p>Click on all of the tevs below. If you change your mind, you can unselect any image.</p>
                                 <p>Click the Submit button when you are done selecting all the tevs.</p>","","3-item","animals","subordinate","[""stimuli/c3_sub4.jpg"",""stimuli/c3_sub5.jpg""]","[1,14]","[2700,3447]","[""select"",""select""]","[""stimuli/c3_sub4.jpg"",""stimuli/c3_sub5.jpg""]","5053"
"","10249","html-keyboard-response","18","2.0.0","299906","pzq1ubhyvdn","turtle","","","","","
      <p>Thank you for playing! This was a big help for Mr. Frog!</p>
      <img src=""stimuli/mrfrog.png"" alt=""Mr. Frog"" style=""width:300px;height:300px;"">
      <p><i>Debrief</i>: In this experiment, we wanted to see how people learn subordinate word meanings (e.g., “dalmatian”) when</p>
      <p>superordinate (e.g., “animal”) and basic-level (e.g., “dog”) meanings can also be reasonable label referents.</p>
      <p>We thought that when presented with three subordinate exemplars (aka the trials with three images), a word will be generalized</p>
      <p>to the subordinate level more often than when presented with one subordinate exemplar (aka the trials with one image).</p>
      <p><b>*Please press any key to save data.*</b></p>
  "," ","","","","","","","","",""
